time,seconds_elapsed,rotationRateX,rotationRateY,rotationRateZ,gravityX,gravityY,gravityZ,accelerationX,accelerationY,accelerationZ,quaternionW,quaternionX,quaternionY,quaternionZ
1681247654228084700,2.276084716796875,-0.14361345767974854,-0.21318690478801727,-0.20506960153579712,-0.02177976258099079,-0.7846800088882446,-0.6195183396339417,0.03494809940457344,0.039715349674224854,0.052639126777648926,0.899866266838319,0.4359981355142166,-0.012101666512332975,-1.1921285629083607e-18
1681247654243116800,2.29111669921875,-0.060254815965890884,-0.19152741134166718,-0.18443915247917175,-0.02133364975452423,-0.7838495969772339,-0.62058424949646,0.05493350327014923,0.07379704713821411,0.027734577655792236,0.900160083351971,0.43536594651388894,-0.012820951166618586,-0.002007698990435025
1681247654258150000,2.30614990234375,-0.05130179971456528,-0.16723592579364777,-0.14549973607063293,-0.021067628636956215,-0.7834075689315796,-0.6211511492729187,0.049830444157123566,0.058477699756622314,0.03448128700256348,0.9003120649630779,0.4350200714808556,-0.013489664765584691,-0.003703491863817946
1681247654273182000,2.321181884765625,-0.05662231519818306,-0.14318251609802246,-0.14741775393486023,-0.020835401490330696,-0.7829304933547974,-0.6217602491378784,0.019614698365330696,-0.005155503749847412,0.05433166027069092,0.9004740401100354,0.4346516715050377,-0.014064496933632207,-0.005169687841908663
1681247654288213800,2.3362138671875,-0.041970934718847275,-0.10166063904762268,-0.16086484491825104,-0.020172040909528732,-0.7824959754943848,-0.6223287582397461,0.018081583082675934,-0.023931026458740234,0.06626808643341064,0.900621941536846,0.4343130295413449,-0.014415353039243812,-0.006669757491612357
1681247654303245800,2.351245849609375,0.006289804819971323,-0.0810813307762146,-0.15440775454044342,-0.019220223650336266,-0.7823737263679504,-0.6225126385688782,0.038003791123628616,-0.023748159408569336,0.05200183391571045,0.9006623487658372,0.43420374136312184,-0.014518229782937365,-0.007982224069389443
1681247654318279000,2.36627880859375,-0.0020465285051614046,-0.04604824632406235,-0.16241027414798737,-0.01786954142153263,-0.7824894189834595,-0.6224073171615601,0.04527432471513748,-0.011684715747833252,0.03907918930053711,0.9006206339102483,0.4342685144571973,-0.014393925302625015,-0.009276969627569565
1681247654333310700,2.381310791015625,-0.07321274280548096,0.005702297203242779,-0.08416502177715302,-0.016439443454146385,-0.7822012305259705,-0.6228089332580566,0.058218009769916534,-0.011164307594299316,0.044500887393951416,0.9007219254880832,0.43404849335802814,-0.014050987627397779,-0.010220773262788157
1681247654348342800,2.3963427734375,-0.1447649449110031,-0.011622630059719086,0.02435746230185032,-0.01614629477262497,-0.7811547517776489,-0.6241287589073181,0.06848394125699997,-0.045307159423828125,0.04649209976196289,0.9010864988031472,0.4332909720752093,-0.013948435438858799,-0.010375473607387695
1681247654363374600,2.41137451171875,-0.1943482756614685,-0.011868173256516457,0.019574426114559174,-0.016611771658062935,-0.7796550393104553,-0.6259889602661133,0.09247846901416779,-0.09668779373168945,0.06486231088638306,0.9016036392082047,0.43221023343025305,-0.014136026434154795,-0.010270944750931266
1681247654378406700,2.42640673828125,-0.2614805996417999,0.01952436938881874,-0.006186330690979958,-0.01656826213002205,-0.777609646320343,-0.6285290718078613,0.08196743577718735,-0.12647360563278198,0.0737958550453186,0.9023077891413748,0.43074042545633917,-0.014077058199511798,-0.010256079702017923
1681247654393439700,2.441439697265625,-0.31320974230766296,-0.01922302506864071,-0.018248053267598152,-0.016263293102383614,-0.7749260067939758,-0.6318427324295044,0.07941941916942596,-0.14417195320129395,0.08019185066223145,0.9032240214764505,0.4288175990149967,-0.01393175668950876,-0.010381688414891984
1681247654408471600,2.456471435546875,-0.20793230831623077,-0.07189022749662399,-0.007112045306712389,-0.016535962000489235,-0.7723665237426758,-0.6349617838859558,0.09339448064565659,-0.12626934051513672,0.07943511009216309,0.9040835332283678,0.42698696759407695,-0.014185479616937153,-0.010672170334168117
1681247654423503600,2.471503662109375,-0.026768065989017487,-0.030872223898768425,-0.01698038913309574,-0.016699036583304405,-0.771454930305481,-0.6360648274421692,0.10129375755786896,-0.02482503652572632,0.022920966148376465,0.9043849128334289,0.4263333093100457,-0.014404532366385602,-0.010971987450205667
1681247654438535700,2.48653564453125,0.07997126877307892,0.007471701595932245,-0.040113139897584915,-0.016287969425320625,-0.7719377279281616,-0.6354895234107971,0.09456555545330048,0.028376877307891846,0.0028144121170043945,0.9042228619662401,0.42667405072135517,-0.014300102573654909,-0.011218152409087025
1681247654453568800,2.50156884765625,0.05327318608760834,-0.025161607190966606,-0.044071927666664124,-0.015586143359541893,-0.7729098796844482,-0.6343243718147278,0.08457112312316895,0.027136504650115967,0.0031293630599975586,0.9038958024542042,0.4273625831638148,-0.014107595875534172,-0.011603085964527736
1681247654468600800,2.516600830078125,-0.08016742765903473,-0.05749957263469696,-0.016091957688331604,-0.015565119683742523,-0.772956907749176,-0.6342675685882568,0.08633537590503693,-0.01631927490234375,0.010457813739776611,0.903875213993764,0.4273902752294896,-0.014274278079905035,-0.011978762337656237
1681247654483632600,2.531632568359375,-0.22019319236278534,-0.08883246034383774,-0.004178041126579046,-0.01596175879240036,-0.7717306017875671,-0.6357492804527283,0.08186446130275726,-0.07934367656707764,0.03768110275268555,0.904280966480501,0.42651120558047106,-0.014613630216303335,-0.01227153747888632
1681247654498664700,2.546664794921875,-0.3194122910499573,-0.1545741856098175,-0.0881512388586998,-0.016513481736183167,-0.7692050933837891,-0.638788640499115,0.06619609892368317,-0.09218412637710571,0.052881717681884766,0.9051106726438937,0.4247044495808249,-0.015224915433710356,-0.013005496691721912
1681247654513697500,2.561697509765625,-0.3305402994155884,-0.17632582783699036,-0.12889067828655243,-0.0165803711861372,-0.7660778164863586,-0.6425340175628662,0.03385331854224205,-0.07480359077453613,0.07855397462844849,0.90612293111064,0.42246990575310583,-0.015879686757989855,-0.01443596863888376
1681247654528729600,2.5767294921875,-0.24258248507976532,-0.17212095856666565,-0.10630467534065247,-0.016812799498438835,-0.7632667422294617,-0.645864725112915,0.020810600370168686,-0.04920274019241333,0.07333976030349731,0.9070179967142229,0.42046616616801896,-0.01660884958105514,-0.015835104184408196
1681247654543761700,2.59176171875,-0.1270134449005127,-0.17528319358825684,-0.12484294176101685,-0.016956087201833725,-0.7616480588912964,-0.6477690935134888,0.007739776745438576,-0.008356213569641113,0.049517810344696045,0.9075171124600805,0.41930395056289455,-0.01731022092980392,-0.01724591090786852
1681247654558793700,2.606793701171875,-0.16361013054847717,-0.20230603218078613,-0.13275465369224548,-0.01706892065703869,-0.7604533433914185,-0.6491683125495911,0.01145368441939354,-0.013747215270996094,0.02012479305267334,0.9078722615463635,0.4184375250619529,-0.018051802240207464,-0.018770473235390855
1681247654573825500,2.621825439453125,-0.29355931282043457,-0.2642437219619751,-0.10345296561717987,-0.017619458958506584,-0.7586846947669983,-0.6512198448181152,0.027888625860214233,-0.015500545501708984,0.032948970794677734,0.9084011204719554,0.41716422649833096,-0.01908138970439375,-0.02043278271684404
1681247654588858600,2.636858642578125,-0.4530344605445862,-0.2886025905609131,-0.06904998421669006,-0.019272511824965477,-0.7552756667137146,-0.6551238894462585,0.011063281446695328,-0.033435940742492676,0.04806828498840332,0.9094390241179418,0.41474459502721583,-0.0206149427640186,-0.021969610945071865
1681247654603890700,2.651890625,-0.5779076814651489,-0.2821473479270935,-0.07564769685268402,-0.021329309791326523,-0.7501658797264099,-0.6609055399894714,-0.035128213465213776,-0.06074720621109009,0.07646352052688599,0.9109910292872949,0.4111583297839269,-0.02227237757303888,-0.02341015654949446
1681247654618922800,2.6669228515625,-0.6437888145446777,-0.27903303503990173,-0.12005431205034256,-0.023062990978360176,-0.744072675704956,-0.6677005290985107,-0.05109472572803497,-0.07598048448562622,0.09467202425003052,0.9128104897533565,0.4069193336465245,-0.02379884094799423,-0.025047559487482444
1681247654633954800,2.681954833984375,-0.6677017211914062,-0.2616282105445862,-0.154927060008049,-0.024260569363832474,-0.7374524474143982,-0.6749631762504578,-0.07273955643177032,-0.07347595691680908,0.09926438331604004,0.9147437214076904,0.40235302855329264,-0.025108650661490928,-0.02693578905136085
1681247654648987600,2.696987548828125,-0.5950400233268738,-0.2638535499572754,-0.19356606900691986,-0.025057271122932434,-0.7310131788253784,-0.6819031238555908,-0.07581858336925507,-0.05396002531051636,0.1009705662727356,0.9165739722512039,0.3979419709610652,-0.02627970847807323,-0.029046096335801484
1681247654664019700,2.712019775390625,-0.4776286780834198,-0.23806296288967133,-0.24731558561325073,-0.02521391771733761,-0.7255553007125854,-0.6877018809318542,-0.07518891245126724,0.0288541316986084,0.08662772178649902,0.9180753901263835,0.3942174496424514,-0.02723339673873806,-0.0314429318852181
1681247654679051500,2.727051513671875,-0.4094127416610718,-0.19275006651878357,-0.22238732874393463,-0.02481745555996895,-0.7210996747016907,-0.6923867464065552,-0.08608342707157135,0.0489346981048584,0.09033596515655518,0.9192649493308217,0.39118818272862377,-0.02790053322368873,-0.033843698404539796
1681247654694083600,2.74208349609375,-0.4410690665245056,-0.13819921016693115,-0.1452866941690445,-0.02457072213292122,-0.7168059349060059,-0.6968397498130798,-0.12859700620174408,0.042077481746673584,0.09042501449584961,0.9204054120759404,0.38829529925688716,-0.028405570836321184,-0.03569262880189321
1681247654709116700,2.75711669921875,-0.5350386500358582,-0.07690683007240295,-0.08178388327360153,-0.024476127699017525,-0.7117468118667603,-0.7020095586776733,-0.14774982631206512,0.04319816827774048,0.10630643367767334,0.92176117435963,0.3849317361120891,-0.028684051763879934,-0.03689428440289021
1681247654724148700,2.772148681640625,-0.6683761477470398,-0.026945659890770912,-0.010669496841728687,-0.024508316069841385,-0.705421507358551,-0.7083643078804016,-0.1683475226163864,0.043418824672698975,0.12187749147415161,0.9234589945816447,0.38077874704206927,-0.02872987727581891,-0.037493441689566635
1681247654739180500,2.7871806640625,-0.8422442078590393,0.004074839875102043,0.08730899542570114,-0.02500186115503311,-0.6973521709442139,-0.7162924408912659,-0.1670605093240738,0.03130596876144409,0.13157570362091064,0.9256051653994678,0.3755402530298114,-0.028693294071442752,-0.03743335178894798
1681247654754212600,2.802212646484375,-1.0417149066925049,0.011388679035007954,0.17297890782356262,-0.026302026584744453,-0.6870997548103333,-0.7260868549346924,-0.1614421159029007,0.016231834888458252,0.13557177782058716,0.9282766483176901,0.3689581426234807,-0.028748357191634245,-0.03668550424665689
1681247654769245700,2.81724560546875,-1.1930791139602661,-0.021966613829135895,0.2311583161354065,-0.02850263938307762,-0.6746504902839661,-0.7375867962837219,-0.15087968111038208,0.013242959976196289,0.1299513578414917,0.9314153314308016,0.36105742356310505,-0.02905415933853564,-0.035479591386903965
1681247654784277800,2.83227783203125,-1.2545512914657593,-0.07387801259756088,0.20104461908340454,-0.03123631700873375,-0.6607996225357056,-0.7499120831489563,-0.10020289570093155,0.05775696039199829,0.09604251384735107,0.9347602683176144,0.35237000550855985,-0.029653584069526014,-0.03434127091674594
1681247654799309800,2.847309814453125,-1.2735615968704224,-0.07436244189739227,0.18162699043750763,-0.033978644758462906,-0.6463461518287659,-0.7622874975204468,-0.0784786269068718,0.0672903060913086,0.09373891353607178,0.9380946899541178,0.34341473632881103,-0.03037402200896629,-0.033499976139023765
1681247654814342000,2.862341796875,-1.3388675451278687,-0.04485328495502472,0.19180744886398315,-0.03642792999744415,-0.631232738494873,-0.774737536907196,-0.056482840329408646,0.07434797286987305,0.10547184944152832,0.9414366002080915,0.334176872743832,-0.03093621461556076,-0.0326489351197209
1681247654829373700,2.877373779296875,-1.493816614151001,-0.06738921999931335,0.23767080903053284,-0.03905295953154564,-0.6145640015602112,-0.7878997325897217,-0.04409218207001686,0.059388160705566406,0.13073420524597168,0.9449606449740884,0.3241256301591707,-0.031507254632583186,-0.03161316117052095
1681247654844406500,2.892406494140625,-1.7488646507263184,-0.1063171774148941,0.3039856553077698,-0.04253890737891197,-0.5951074361801147,-0.8025195598602295,-0.0016047731041908264,0.04907160997390747,0.1583850383758545,0.9488647190125049,0.3125564643376844,-0.03238326961623418,-0.030259777773436317
1681247654859438600,2.9074384765625,-2.034395217895508,-0.18069979548454285,0.3200050890445709,-0.047081511467695236,-0.571855902671814,-0.8190019130706787,0.025826018303632736,0.055956244468688965,0.1828935146331787,0.9532428691333182,0.29893425811154367,-0.033724673022405546,-0.028792443386355997
1681247654874470700,2.922470703125,-2.3390705585479736,-0.25425925850868225,0.3001672029495239,-0.05245782434940338,-0.5443863272666931,-0.8371927738189697,0.07163811475038528,0.10967862606048584,0.22108864784240723,0.9580368949528312,0.2830918538184725,-0.03553337265971456,-0.027600124365773075
1681247654889502700,2.937502685546875,-2.542300224304199,-0.3532731831073761,0.33563679456710815,-0.058797989040613174,-0.5129318237304688,-0.8564133048057556,0.09064307808876038,0.10913842916488647,0.2553238868713379,0.963065875707205,0.26525300911821975,-0.03787051173431832,-0.02666436614175266
1681247654904535800,2.952535888671875,-2.7107760906219482,-0.39305415749549866,0.3818996250629425,-0.06648149341344833,-0.4784068465232849,-0.8756181597709656,0.10732926428318024,0.12132060527801514,0.2760087847709656,0.9680702322212985,0.24601885552381791,-0.040812408381414644,-0.02547988720265895
1681247654919567600,2.967567626953125,-2.922149896621704,-0.4092720150947571,0.337256520986557,-0.07427056133747101,-0.4405847191810608,-0.894633412361145,0.10152275115251541,0.0969720184803009,0.2824203372001648,0.9729952642910081,0.22530599115869077,-0.043823445886364124,-0.02443221688074009
1681247654934599700,2.982599609375,-3.073007345199585,-0.49537357687950134,0.29618018865585327,-0.08241775631904602,-0.39939796924591064,-0.913065493106842,0.06921889632940292,0.09620580077171326,0.25304657220840454,0.9777335330973359,0.203096772704796,-0.04710587630248843,-0.02387097520153048
1681247654949631700,2.9976318359375,-3.129307746887207,-0.5495321750640869,0.2515360414981842,-0.09133932739496231,-0.35596001148223877,-0.930026650428772,0.07255575805902481,0.09945973753929138,0.22342270612716675,0.982063491996292,0.17999994614472806,-0.05085943348706796,-0.0237640524451767
1681247654964664600,3.01266455078125,-3.0848441123962402,-0.5247522592544556,0.2664364278316498,-0.10025859624147415,-0.31167054176330566,-0.9448860883712769,0.07346415519714355,0.1668340563774109,0.14923179149627686,0.9858370047892088,0.15675269061141633,-0.0546402664564944,-0.023840718323520266
1681247654979696600,3.027696533203125,-2.902052879333496,-0.4570765495300293,0.41569221019744873,-0.10880129784345627,-0.26822006702423096,-0.9571939706802368,0.07207338511943817,0.17434796690940857,0.14705908298492432,0.9889693329645206,0.13424358020333835,-0.058152204640174565,-0.023167587100072093
1681247654994728400,3.042728515625,-2.742889642715454,-0.32109686732292175,0.508108377456665,-0.11626531183719635,-0.22674623131752014,-0.9669893980026245,0.017678268253803253,0.15478576719760895,0.1257876753807068,0.9914850468479542,0.11303740199301687,-0.061056039620089035,-0.021262835733792274
1681247655009760500,3.057760498046875,-2.591458320617676,-0.25879621505737305,0.49755990505218506,-0.12202132493257523,-0.1867925077676773,-0.974791944026947,-0.016269080340862274,0.11005604267120361,0.1036067008972168,0.9934972244779079,0.09280202277180395,-0.06318073344739673,-0.01895670738482687
1681247655024793600,3.072793701171875,-2.4304399490356445,-0.18422582745552063,0.4656437933444977,-0.12655013799667358,-0.14900895953178406,-0.9807045459747314,-0.018225252628326416,0.10979384183883667,0.035392045974731445,0.9950242909388995,0.07378852542058902,-0.06483041268139761,-0.01670670926613144
1681247655039825700,3.08782568359375,-2.2823259830474854,-0.02945355884730816,0.4816659092903137,-0.1291990578174591,-0.11330187320709229,-0.9851245284080505,0.0020628273487091064,0.114354707300663,0.017442643642425537,0.9961699646498072,0.055918507778378465,-0.06565719629156892,-0.014417307011264828
1681247655054857700,3.102857666015625,-2.219797372817993,0.21144135296344757,0.5720911026000977,-0.12854483723640442,-0.07895258814096451,-0.9885558485984802,0.009938284754753113,0.11809136718511581,0.023956298828125,0.9970678469116901,0.03883926774637886,-0.06491204899459321,-0.011568105594701372
1681247655069889800,3.117889892578125,-2.1914174556732178,0.4587526023387909,0.6376845240592957,-0.12413489818572998,-0.045185208320617676,-0.9912360310554504,0.0012100860476493835,0.06375513225793839,0.03222113847732544,0.9977748165608161,0.02214440424777798,-0.06238285329934445,-0.007974541554949345
1681247655084923000,3.1329228515625,-2.4104344844818115,0.6233673691749573,0.6413428783416748,-0.11621184647083282,-0.009869866073131561,-0.9931753873825073,0.048813775181770325,0.023541724309325218,-0.0439949631690979,0.9982839110569159,0.004702203641393179,-0.05822528853915022,-0.004135637885427891
1681247655099954700,3.14795458984375,-2.6243607997894287,0.6085546016693115,0.7760553956031799,-0.10685320943593979,0.029079169034957886,-0.9938494563102722,0.09252519905567169,0.004474891349673271,-0.07675290107727051,0.9984612055841372,-0.014562018393136514,-0.05350893538311178,-4.857369261445886e-7
1681247655114986800,3.16298681640625,-2.739255428314209,0.5803799629211426,0.927051842212677,-0.09742696583271027,0.07051823288202286,-0.9927412271499634,0.20326191186904907,0.010353334248065948,-0.18911302089691162,0.9981696485996441,-0.03506403845173254,-0.04898871683281223,0.005292213458757973
1681247655130018800,3.178018798828125,-2.8964505195617676,0.6769317984580994,1.095069408416748,-0.08676845580339432,0.11382927745580673,-0.9897040724754333,0.21021205186843872,-0.007063537836074829,-0.23566824197769165,0.9973551895421702,-0.056551381588168324,-0.044157776210805,0.011613489092824348
1681247655145051600,3.1930517578125,-3.041595935821533,0.8012607097625732,1.3582932949066162,-0.07328241318464279,0.1594705879688263,-0.9844789505004883,0.1741277426481247,0.027953118085861206,-0.23825359344482422,0.9959218381528782,-0.07931219328428099,-0.03834184266468447,0.01947080622213971
1681247655160083700,3.208083740234375,-3.2346951961517334,0.9660384654998779,1.5692391395568848,-0.05622614175081253,0.20695655047893524,-0.9767331480979919,0.15313470363616943,0.011137321591377258,-0.26249414682388306,0.9937424240506344,-0.10321539491568643,-0.03130519618633273,0.029028917348980634
1681247655175115500,3.223115478515625,-3.3299710750579834,1.1667933464050293,1.8988080024719238,-0.03466073051095009,0.2565096914768219,-0.9659199714660645,0.1528400480747223,0.137518048286438,-0.31079816818237305,0.990626703854949,-0.12854578138086306,-0.022715346734078695,0.04023518604412936
1681247655190147600,3.238147705078125,-2.9286136627197266,1.2943065166473389,2.354224920272827,-0.007870491594076157,0.302794486284256,-0.953023374080658,0.16619569063186646,0.2016763687133789,-0.33060699701309204,0.9866915755639972,-0.1527565860582197,-0.012399091056493788,0.05432716980909067
1681247655205180700,3.2531806640625,-2.317026138305664,1.4934971332550049,2.7229466438293457,0.02417241595685482,0.3398323655128479,-0.9401753544807434,0.18435418605804443,0.3961905837059021,-0.4439494013786316,0.9823431461033454,-0.17295163489519738,-0.0002570219396651797,0.07134186270981877
1681247655220212700,3.268212646484375,-1.58302903175354,1.7540334463119507,2.9371566772460938,0.06214064359664917,0.36559632420539856,-0.928696870803833,0.13164597749710083,0.47241637110710144,-0.508558988571167,0.9778628073639978,-0.18826546557392895,0.014411108663914356,0.0901824188226114
1681247655235244800,3.283244873046875,-0.7277031540870667,1.923986792564392,2.888920783996582,0.10426174849271774,0.3781142830848694,-0.919869065284729,0.06631626188755035,0.4839920401573181,-0.658805251121521,0.9736609403730447,-0.19768939881411923,0.03137478726101621,0.10917362154301467
1681247655250276600,3.298276611328125,0.2726568281650543,2.0492687225341797,2.764432668685913,0.14770671725273132,0.37605246901512146,-0.9147498607635498,0.04807880520820618,0.4954990744590759,-0.7243187427520752,0.9701952460531238,-0.2003310946471016,0.04992522328001118,0.12687070879599574
1681247655265309700,3.313309814453125,1.0633777379989624,2.074420928955078,2.6814072132110596,0.19137245416641235,0.3594534695148468,-0.9133289456367493,0.13507407903671265,0.5529153347015381,-0.753480076789856,0.967546913850375,-0.1960980728970178,0.06986459787737476,0.14323929132435684
1681247655280341500,3.328341552734375,1.1985671520233154,1.8232390880584717,2.60548734664917,0.2321462333202362,0.3347339928150177,-0.913269579410553,0.1398325115442276,0.4977550208568573,-0.667876660823822,0.9650795621827034,-0.18812721123911869,0.08929376594008417,0.15892186691789445
1681247655295373600,3.34337353515625,0.6434761881828308,1.5746098756790161,2.4814136028289795,0.26768943667411804,0.31202539801597595,-0.9115824103355408,0.11306312680244446,0.11004796624183655,-0.41265153884887695,0.9619853768044385,-0.18142989285714742,0.1062637077283431,0.1742853905737593
1681247655310405600,3.358405517578125,-0.17051739990711212,1.3876466751098633,2.3867275714874268,0.2990541458129883,0.298339307308197,-0.9063996076583862,0.038180381059646606,-0.07551521062850952,-0.31273186206817627,0.9577233153768093,-0.17962717396800718,0.12055811759700635,0.18964694874920354
1681247655325438700,3.373438720703125,-0.9513832330703735,1.1533383131027222,2.398463726043701,0.3269585072994232,0.2949368357658386,-0.8978365063667297,-0.05945667624473572,-0.2627865672111511,-0.19632548093795776,0.9522290437418867,-0.18336456060108966,0.13213318769812227,0.20537338395011828
1681247655340470300,3.38847021484375,-1.2689216136932373,0.8395465612411499,1.9687238931655884,0.35081106424331665,0.29873064160346985,-0.887519896030426,-0.11268237233161926,-0.27836018800735474,-0.17725366353988647,0.9459865108247717,-0.1908043479236107,0.14083232299076992,0.22106439402646685
1681247655355502300,3.40350244140625,-1.361576795578003,0.559645414352417,1.6731290817260742,0.36777156591415405,0.3065773844718933,-0.8779261708259583,-0.09576839208602905,-0.1659676432609558,-0.15469706058502197,0.9402817796289411,-0.19936268367972731,0.14591580517350938,0.23416526257465428
1681247655370534400,3.418534423828125,-1.5308374166488647,0.4779292047023773,1.7302889823913574,0.3824968934059143,0.31609827280044556,-0.8682039380073547,-0.1234484314918518,-0.12835416197776794,-0.13115519285202026,0.9344238914798917,-0.2086516981831793,0.14954101254266106,0.24688873668529002
1681247655385567200,3.433567138671875,-1.4316961765289307,0.2908085882663727,1.7109419107437134,0.39588111639022827,0.32526695728302,-0.8587663173675537,-0.18892616033554077,-0.12444603443145752,-0.08479142189025879,0.9282879061850795,-0.21784330263337107,0.15218782705617429,0.26012476477714347
1681247655400599300,3.448599365234375,-1.2540842294692993,0.11933006346225739,1.5868183374404907,0.40655890107154846,0.3327995240688324,-0.8508550524711609,-0.20912542939186096,-0.1166740357875824,-0.08733153343200684,0.9225018377249274,-0.22579617046204536,0.1535856605487843,0.27279647736172985
1681247655415631400,3.46363134765625,-0.9026075005531311,0.01386888138949871,1.5006904602050781,0.415097713470459,0.3370005786418915,-0.8450588583946228,-0.2267584502696991,-0.014078795909881592,-0.11450529098510742,0.917363959814957,-0.23157593068692464,0.15441226111462783,0.28455726619785443
1681247655430663400,3.478663330078125,-0.6313339471817017,-0.08338522911071777,1.5003095865249634,0.4222729504108429,0.33736392855644226,-0.841350793838501,-0.225327730178833,0.03960445523262024,-0.13138175010681152,0.9127972323893144,-0.23506558999896515,0.1551411195816164,0.29576461553236555
1681247655445696300,3.4936962890625,-0.31859520077705383,-0.1645977944135666,1.4923083782196045,0.4282510578632355,0.33361491560935974,-0.8398227095603943,-0.22636201977729797,0.06573814153671265,-0.10037809610366821,0.9087274145960758,-0.23619242749293995,0.1558903195443905,0.30679953427549883
1681247655460728300,3.508728271484375,-0.26593559980392456,-0.28346186876296997,1.4810786247253418,0.43284842371940613,0.32756826281547546,-0.8398460149765015,-0.24145743250846863,0.038322269916534424,-0.09646379947662354,0.9050036425155091,-0.235855560458769,0.15636224710818608,0.3176342733127919
1681247655475760000,3.523760009765625,-0.3018651604652405,-0.3650137186050415,1.462955355644226,0.43590235710144043,0.3214985728263855,-0.8406115770339966,-0.27437278628349304,-0.0313069224357605,-0.012369990348815918,0.9013098156834266,-0.23524051120671802,0.15606449680054543,0.3285519113792796
1681247655490792200,3.538792236328125,-0.36502841114997864,-0.4476734697818756,1.4348392486572266,0.43772193789482117,0.31614142656326294,-0.8416971564292908,-0.2883841395378113,-0.07172611355781555,0.01668494939804077,0.8975749798685536,-0.23474725729079413,0.15506498212813138,0.33942257188406844
1681247655505825300,3.5538251953125,-0.5361471176147461,-0.5381559133529663,1.375917911529541,0.4380683898925781,0.31248193979263306,-0.8428826332092285,-0.29359814524650574,-0.08129599690437317,0.058138370513916016,0.893719962816411,-0.2348082854858322,0.15304821026742846,0.35029409205921197
1681247655520857300,3.568857421875,-0.7121780514717102,-0.6035743355751038,1.3102219104766846,0.43714234232902527,0.3116120994091034,-0.8436850905418396,-0.30494019389152527,-0.0827607810497284,0.08835971355438232,0.8896749336513762,-0.23596323892725976,0.14992937880742224,0.3610001502974893
1681247655535889400,3.583889404296875,-0.8916416168212891,-0.6989282965660095,1.2741153240203857,0.43495646119117737,0.31330162286758423,-0.8441889882087708,-0.3078049421310425,-0.09510093927383423,0.13752394914627075,0.8854007515236315,-0.23808313722473526,0.14567748472370975,0.37169903244650754
1681247655550921200,3.598921142578125,-1.044288158416748,-0.7687193751335144,1.2016505002975464,0.4314969480037689,0.317546010017395,-0.8443784117698669,-0.3136533200740814,-0.10273277759552002,0.16821575164794922,0.8809291470799625,-0.2411092398202527,0.1402751666185298,0.3822997257882747
1681247655565954300,3.613954345703125,-1.1505162715911865,-0.8110436201095581,1.0959067344665527,0.4270018935203552,0.3240659832954407,-0.8441863656044006,-0.3365477919578552,-0.10882550477981567,0.2112213373184204,0.8763857332260033,-0.24487593945485042,0.13394995305101137,0.39248085293357005
1681247655580986400,3.628986328125,-1.2020606994628906,-0.8312637209892273,0.9665563702583313,0.42162635922431946,0.33246317505836487,-0.8436228036880493,-0.34185343980789185,-0.10585489869117737,0.2259470820426941,0.8719224390397406,-0.249158466259539,0.12691982772903762,0.4019487621577573
1681247655596018400,3.644018310546875,-1.1519542932510376,-0.8255104422569275,0.8486737012863159,0.41568881273269653,0.34183230996131897,-0.8428247570991516,-0.36312228441238403,-0.08075442910194397,0.2489679455757141,0.8676846664892451,-0.253554109247963,0.11957400625810813,0.41053122136680126
1681247655611050200,3.65905029296875,-1.0018072128295898,-0.7898792624473572,0.7503743171691895,0.4095933735370636,0.35062265396118164,-0.8421977758407593,-0.3650071918964386,-0.07703253626823425,0.24274098873138428,0.8638295217264765,-0.25739537526579814,0.11246662738923907,0.4182075950401378
1681247655626083300,3.674083251953125,-0.7441759705543518,-0.7244107723236084,0.6515185832977295,0.40362095832824707,0.35741493105888367,-0.8422260284423828,-0.36616063117980957,-0.04840919375419617,0.1958943009376526,0.860533549865259,-0.26006157381042366,0.10608936915206822,0.42496480673843295
1681247655641115100,3.689115234375,-0.5508788824081421,-0.5931935906410217,0.5609774589538574,0.3985111713409424,0.361892968416214,-0.842746913433075,-0.3520176410675049,-0.03155547380447388,0.15434664487838745,0.85786325022788,-0.26160208309656363,0.10095002457157166,0.4306321446683706
1681247655656147200,3.704147216796875,-0.358388751745224,-0.5008754134178162,0.509893536567688,0.3945857584476471,0.36449235677719116,-0.8434734344482422,-0.3198024332523346,-0.016439378261566162,0.11730766296386719,0.8556200930359406,-0.2623877683297048,0.09703577463275703,0.43548951033431343
1681247655671179300,3.71917919921875,-0.17518779635429382,-0.4650047719478607,0.44790127873420715,0.3911006450653076,0.3650522530078888,-0.8448533415794373,-0.29323074221611023,-0.034333229064941406,0.09518903493881226,0.8538599106335621,-0.26217615937813993,0.09400522274398175,0.4397158978066447
1681247655686212400,3.73421240234375,0.09105657041072845,-0.4066908657550812,0.339426189661026,0.3876473903656006,0.3632344603538513,-0.84722501039505,-0.2508828341960907,-0.03874105215072632,0.04014188051223755,0.852766108961567,-0.2606877727820778,0.09181165686447582,0.4431731586024591
1681247655701244400,3.749244384765625,0.24362805485725403,-0.34152117371559143,0.25304603576660156,0.384467214345932,0.35931041836738586,-0.8503416776657104,-0.2238989770412445,-0.015377312898635864,-0.02738964557647705,0.8524097815139261,-0.2581156783489408,0.09058391882590466,0.4456102458213329
1681247655716276500,3.7642763671875,0.24869726598262787,-0.2860470116138458,0.2728740870952606,0.3818058669567108,0.3545115292072296,-0.8535490036010742,-0.15560957789421082,0.009441107511520386,-0.12304401397705078,0.8522587682897246,-0.25522258989765745,0.08992742542479791,0.4476935240541157
1681247655731308300,3.779308349609375,0.11895499378442764,-0.30475038290023804,0.244942307472229,0.3794519007205963,0.3505187928676605,-0.8562434911727905,-0.10848632454872131,-0.011422693729400635,-0.15283548831939697,0.8519184211745734,-0.25282586005600705,0.08920399163806043,0.44984095417330117
1681247655746341000,3.794341064453125,-0.05788310989737511,-0.3604152500629425,0.1277666836977005,0.3761935532093048,0.3490809500217438,-0.8582662343978882,-0.06029081344604492,-0.10609996318817139,-0.17692053318023682,0.8515506084724951,-0.2514014360497367,0.08754545528855508,0.4516576669155406
1681247655761373200,3.809373291015625,-0.15011748671531677,-0.4573143720626831,-0.002389462199062109,0.3712562024593353,0.3501957058906555,-0.8599603176116943,-0.045496344566345215,-0.1400059163570404,-0.1949560046195984,0.8513812451158765,-0.2507025507640659,0.08466438596063657,0.45291295417570737
1681247655776405200,3.8244052734375,-0.1673089861869812,-0.46605727076530457,-0.16134129464626312,0.3647703230381012,0.352679580450058,-0.8617190718650818,-0.02625405788421631,-0.1253998875617981,-0.2201443314552307,0.8516401009989076,-0.250167580607419,0.08097311565779962,0.45339690315688025
1681247655791437300,3.839437255859375,-0.1472010463476181,-0.4610033631324768,-0.3474736213684082,0.35737740993499756,0.3561151623725891,-0.863402247428894,-0.01895272731781006,-0.09596806764602661,-0.23774826526641846,0.8525009768415563,-0.24974511784198222,0.07698223122684321,0.4527066573397608
1681247655806470400,3.854470458984375,-0.06527966260910034,-0.4603295922279358,-0.4879697263240814,0.3490455448627472,0.3597967028617859,-0.8652823567390442,-0.010544568300247192,-0.0340215265750885,-0.2544381022453308,0.8539836323589547,-0.24911053833108782,0.07282001392043301,0.450947087440316
1681247655821502200,3.869502197265625,0.07512079924345016,-0.4137610197067261,-0.6662899851799011,0.34022197127342224,0.36266642808914185,-0.8675956130027771,-0.011272996664047241,-0.024852097034454346,-0.2599831223487854,0.8561717148501138,-0.24788470629100828,0.06895922205852954,0.4480714248433297
1681247655836534300,3.8845341796875,0.20097896456718445,-0.4113071858882904,-0.8296826481819153,0.330734521150589,0.364702045917511,-0.8704062700271606,-0.05622890591621399,-0.008256733417510986,-0.29502952098846436,0.8591568347525255,-0.24601678568278068,0.06536508108466944,0.44390634118127154
1681247655851567400,3.8995673828125,0.35532912611961365,-0.4080509543418884,-0.9188729524612427,0.32045453786849976,0.3653566837310791,-0.8739699125289917,-0.048085153102874756,0.0006101429462432861,-0.3095780611038208,0.8627942769092569,-0.24325493957449537,0.061984554881989624,0.43882911337430475
1681247655866599400,3.914599365234375,0.4525982141494751,-0.3927098214626312,-1.0295946598052979,0.3096626400947571,0.3645741641521454,-0.8781769275665283,-0.04251176118850708,0.044697076082229614,-0.3579375743865967,0.8669242733151468,-0.23967766342961683,0.05887404359093773,0.43304820875189515
1681247655881631500,3.929631591796875,0.4712570309638977,-0.3619188666343689,-1.1162102222442627,0.298768013715744,0.36339008808135986,-0.8824315071105957,-0.04988190531730652,0.057325273752212524,-0.3829188346862793,0.8713984762567488,-0.235904721745097,0.05597510640458828,0.4264746767338501
1681247655896663300,3.944663330078125,0.5347210168838501,-0.3579571545124054,-1.1470208168029785,0.28777506947517395,0.36172568798065186,-0.8867581486701965,-0.04667094349861145,0.06800758838653564,-0.43016690015792847,0.8760321798019267,-0.23192875631590143,0.053197442566915075,0.419460132174488
1681247655911696100,3.959696044921875,0.6679943799972534,-0.3163508474826813,-1.1814872026443481,0.27688607573509216,0.3587377071380615,-0.8914265632629395,-0.023666471242904663,0.09202218055725098,-0.44341230392456055,0.8808239643894478,-0.22739535893159005,0.05077456831256987,0.41214375872916853
1681247655926728200,3.974728271484375,0.8998079895973206,-0.23595240712165833,-1.2441437244415283,0.26665231585502625,0.35317111015319824,-0.8967534303665161,-0.014455050230026245,0.15320706367492676,-0.4955500364303589,0.8859526564508096,-0.22180131567158592,0.0492691866875751,0.4043077287029733
1681247655941760300,3.98976025390625,1.0945448875427246,-0.10880669951438904,-1.3209532499313354,0.25755536556243896,0.3446662724018097,-0.902701735496521,-0.004106849431991577,0.1867973804473877,-0.544808030128479,0.8915295416593169,-0.21505089805866953,0.04901273269646689,0.39563367518253306
1681247655956792300,4.004792236328125,1.1683567762374878,-0.015126286074519157,-1.3128670454025269,0.24996502697467804,0.33413079380989075,-0.9087761640548706,0.04172198474407196,0.23663946986198425,-0.6340552568435669,0.8972488083808948,-0.20766913804505807,0.04985429591298475,0.3864358954387074
1681247655971825400,4.019825439453125,1.074481725692749,0.0116696422919631,-1.2942771911621094,0.24362456798553467,0.32342955470085144,-0.9143524169921875,0.08883392810821533,0.23644590377807617,-0.6234130263328552,0.9027169138108114,-0.20051691339401556,0.05115414134454368,0.37719797365558777
1681247655986857500,4.034857421875,0.9503573775291443,-0.09248898178339005,-1.3101578950881958,0.23692984879016876,0.31415098905563354,-0.9193331599235535,0.12979988753795624,0.16094669699668884,-0.5054715275764465,0.9078742592752156,-0.194026760017982,0.05183669744040906,0.36800964565462596
1681247656001889300,4.04988916015625,0.708321213722229,-0.31873729825019836,-1.359012246131897,0.227949321269989,0.3072681725025177,-0.9239184856414795,0.1593034863471985,0.1257915198802948,-0.4242565631866455,0.9127919386693918,-0.18829825864685934,0.05083812549702299,0.35884576657842276
1681247656016921300,4.06492138671875,0.44773250818252563,-0.5208839774131775,-1.3897520303726196,0.2156127691268921,0.3037894666194916,-0.9280210733413696,0.1819854974746704,0.07307213544845581,-0.21623551845550537,0.9174343956196477,-0.18366880997052573,0.047489272468740365,0.34974959777074377
1681247656031954200,4.0799541015625,0.24366219341754913,-0.5561988353729248,-1.373745322227478,0.20167391002178192,0.30345842242240906,-0.9312575459480286,0.16194303333759308,0.04572370648384094,-0.11280983686447144,0.9216615922027604,-0.18041277961456761,0.04269014951942066,0.34083553129576516
1681247656046986200,4.094986328125,0.2477489709854126,-0.5573219060897827,-1.4222161769866943,0.18751157820224762,0.3043421804904938,-0.933924674987793,0.06267152726650238,-0.003988146781921387,0.04931163787841797,0.925655249459233,-0.17784648872163183,0.03752727236757903,0.3318506522252867
1681247656062018300,4.110018310546875,0.4936058819293976,-0.5394906997680664,-1.5464414358139038,0.17294654250144958,0.30330437421798706,-0.9370677471160889,0.029781728982925415,-0.0017754435539245605,0.08610033988952637,0.9299267340533842,-0.1743680588703133,0.03258686669533202,0.3221339437293617
1681247656077050000,4.125050048828125,0.8301562070846558,-0.4585908055305481,-1.5959038734436035,0.15867425501346588,0.2979217767715454,-0.9413102865219116,0.01571844518184662,0.07744443416595459,0.09127366542816162,0.934649146460963,-0.16890297453540182,0.02857675252914287,0.3115865370502738
1681247656092083200,4.140083251953125,1.1417229175567627,-0.32411983609199524,-1.5343877077102661,0.14616426825523376,0.2874043881893158,-0.9465910792350769,0.03526271879673004,0.1177012026309967,0.10734248161315918,0.9395788281958662,-0.16131116192468598,0.02613724584319326,0.30081074650596584
1681247656107115300,4.155115234375,1.2771164178848267,-0.20391803979873657,-1.5128635168075562,0.13607250154018402,0.27316829562187195,-0.9522937536239624,0.009664192795753479,0.11042243242263794,0.1278766393661499,0.9444358274361011,-0.15237028731739463,0.025227565287870898,0.2901512849316784
1681247656122147300,4.170147216796875,1.3263163566589355,-0.11476126313209534,-1.5106853246688843,0.12773540616035461,0.2574693262577057,-0.9578064680099487,-0.010837823152542114,0.1133955717086792,0.15551459789276123,0.9491565232640587,-0.14304499223979045,0.02519716704075452,0.2792942705960389
1681247656137180400,4.185180419921875,1.3451381921768188,-0.027323296293616295,-1.4246529340744019,0.12117692083120346,0.24084866046905518,-0.9629683494567871,-0.011191576719284058,0.11614596843719482,0.18286281824111938,0.9535993067764468,-0.1335824895694355,0.025913937948026784,0.2685752333231864
1681247656152212500,4.20021240234375,1.2946089506149292,0.04239639639854431,-1.3222150802612305,0.11654335260391235,0.22407035529613495,-0.9675795435905457,0.0006441473960876465,0.13039131462574005,0.19270771741867065,0.9575980852053068,-0.12436082292107245,0.027287824549072623,0.25844883004753755
1681247656167244300,4.215244384765625,1.1995478868484497,0.07227812707424164,-1.2445183992385864,0.11323042958974838,0.20800676941871643,-0.9715513586997986,0.005009926855564117,0.11686810851097107,0.22506088018417358,0.9611647807456342,-0.11570016200436227,0.02894455970650404,0.248873666742977
1681247656182276400,4.2302763671875,1.0227731466293335,0.06352884322404861,-1.1482880115509033,0.11070746183395386,0.19374506175518036,-0.9747854471206665,0.011133968830108643,0.10589177906513214,0.246163010597229,0.9642836961106177,-0.10805395804826619,0.030522218477790724,0.23989543874568423
1681247656197309200,4.24530908203125,0.8112810850143433,0.014917101711034775,-1.0719900131225586,0.10818207263946533,0.1820547878742218,-0.9773191213607788,0.024248957633972168,0.0616128146648407,0.2991575002670288,0.9669629104714454,-0.10170137280544726,0.03157942950072054,0.23160846481360484
1681247656212341200,4.26034130859375,0.5408613085746765,-0.04250118136405945,-1.0042905807495117,0.10519330203533173,0.17371243238449097,-0.9791620969772339,0.030884578824043274,0.05164462327957153,0.3266352415084839,0.969252657813572,-0.0969722584910437,0.031864462489970824,0.22389842751815367
1681247656227373300,4.275373291015625,0.255920946598053,-0.11132711917161942,-0.9125418066978455,0.10160072892904282,0.16939666867256165,-0.9802969098091125,0.03173056244850159,0.02460356056690216,0.3922842741012573,0.9711425314773531,-0.09419900198384713,0.03127436301653013,0.21686535267087007
1681247656242406400,4.290406494140625,0.035497650504112244,-0.1910906583070755,-0.8481457829475403,0.0971435084939003,0.1686694324016571,-0.9808740019798279,0.0318237766623497,0.0061199963092803955,0.4256524443626404,0.9726815027575832,-0.09314795947711557,0.02977360389140355,0.21054160895110238
1681247656257438500,4.3054384765625,-0.10997012257575989,-0.2611030340194702,-0.8510475754737854,0.09165751188993454,0.17054863274097443,-0.9810770153999329,0.012682080268859863,-0.014542773365974426,0.45367223024368286,0.9740165458578487,-0.09331459654863934,0.02745705184496302,0.2045246465919365
1681247656272470300,4.32047021484375,-0.13437426090240479,-0.2881096303462982,-0.822910487651825,0.0853719487786293,0.17351572215557098,-0.9811238050460815,0.001008056104183197,-0.011207982897758484,0.45431411266326904,0.9752563936007065,-0.09397499019943176,0.02463323559246222,0.19858743518623162
1681247656287502300,4.33550244140625,-0.10152746737003326,-0.2918716073036194,-0.7493494153022766,0.07895566523075104,0.1763475388288498,-0.9811562299728394,-0.005484595894813538,0.043485820293426514,0.43895041942596436,0.9763774790176376,-0.09460309525730752,0.02172874070628162,0.19304208439826737
1681247656302535200,4.35053515625,-0.046046528965234756,-0.27336156368255615,-0.6557326912879944,0.07286861538887024,0.17817188799381256,-0.9812976121902466,-0.003944680094718933,0.06480905413627625,0.4363909959793091,0.9773833713818167,-0.09480993174138172,0.019033792447084023,0.18807097019149288
1681247656317567200,4.365567138671875,0.06314520537853241,-0.26468366384506226,-0.5385200381278992,0.06725332885980606,0.1788712441921234,-0.9815712571144104,-0.014152757823467255,0.0790785700082779,0.4497871994972229,0.9782512599033313,-0.0945447899317754,0.016603283396372105,0.18387562415886538
1681247656332599000,4.38059912109375,0.2315981388092041,-0.21991245448589325,-0.46253469586372375,0.06224843114614487,0.1771542727947235,-0.9822125434875488,-0.021248068660497665,0.08273342251777649,0.44493532180786133,0.9790702622898811,-0.09316521035430958,0.014627582314337216,0.1803547128497366
1681247656347631000,4.395631103515625,0.36927348375320435,-0.08030156046152115,-0.38436105847358704,0.058710742741823196,0.17293205857276917,-0.9831823706626892,-0.054667167365550995,0.12414130568504333,0.3985113501548767,0.9798820825929987,-0.09069276045920623,0.013551480998762033,0.1772635254355137
1681247656362664000,4.410663818359375,0.4730069637298584,0.061497919261455536,-0.21691879630088806,0.057831499725580215,0.16704773902893066,-0.9842512607574463,-0.06442329287528992,0.15640805661678314,0.3657667636871338,0.980565832015816,-0.08765038185455258,0.013848234086735146,0.1749752139166442
1681247656377696000,4.425696044921875,0.5048725605010986,0.18593332171440125,-0.058109182864427567,0.05932912603020668,0.15977756679058075,-0.985368549823761,-0.05072316899895668,0.16366298496723175,0.3194597363471985,0.981050516617545,-0.08414774373344422,0.01532580341064672,0.17385106537294145
1681247656392728000,4.44072802734375,0.4566272497177124,0.3401990532875061,0.058756448328495026,0.06319393217563629,0.15263447165489197,-0.9862602353096008,-0.05167355388402939,0.15917888283729553,0.30268174409866333,0.9813131687617412,-0.0809339525758149,0.017876798880765567,0.17365059010692366
1681247656407761200,4.45576123046875,0.3925626873970032,0.5221009850502014,0.16840572655200958,0.06986554712057114,0.14620332419872284,-0.9867843985557556,-0.05268416553735733,0.13921229541301727,0.24212497472763062,0.9813584542550616,-0.07834008761067023,0.021694363418274094,0.1741487494602073
1681247656422793200,4.470793212890625,0.3710096776485443,0.6423043608665466,0.28177303075790405,0.07909795641899109,0.14042648673057556,-0.9869264960289001,-0.04726812243461609,0.13992324471473694,0.20614951848983765,0.9811681246473114,-0.07632763249325897,0.026661637421632557,0.1754204724693683
1681247656437825300,4.4858251953125,0.4217069447040558,0.7602184414863586,0.31618747115135193,0.09007757902145386,0.13401839137077332,-0.9868764281272888,0.0010326430201530457,0.167907252907753,0.06133931875228882,0.9808351774740495,-0.07419279448968132,0.0325147706331952,0.1772026454172784
1681247656452857000,4.500857177734375,0.28877657651901245,0.9274982810020447,0.3772771656513214,0.10320324450731277,0.1281215399503708,-0.9863741397857666,0.020972780883312225,0.20096474885940552,-0.0478208065032959,0.9803609581567644,-0.07253912940908532,0.03938272007124796,0.17910803437980524
1681247656467890000,4.515889892578125,0.043308649212121964,1.046744465827942,0.559952974319458,0.1187947690486908,0.12475219368934631,-0.985050618648529,0.1031290590763092,0.1868780553340912,-0.16514164209365845,0.979496216446186,-0.07244712188700943,0.04718168627586508,0.18196858022873488
1681247656482922000,4.530921875,-0.2778593599796295,1.1007800102233887,0.6616662740707397,0.1358782798051834,0.1253231018781662,-0.9827671051025391,0.1380169689655304,0.1390506625175476,-0.19208329916000366,0.97815976495488,-0.0745706011301862,0.0552780559405267,0.18597636640003337
1681247656497954000,4.5459541015625,-0.5353426933288574,1.118696689605713,0.7350589632987976,0.15357676148414612,0.1299961358308792,-0.979548454284668,0.17941579222679138,0.036873966455459595,-0.21231555938720703,0.9764348138596379,-0.07891343819133056,0.06323319840494032,0.19065552060020446
1681247656512986000,4.560986083984375,-0.7511788606643677,1.19125497341156,0.7903456687927246,0.1719902902841568,0.13750679790973663,-0.9754543900489807,0.1993170976638794,0.012639686465263367,-0.2504672408103943,0.9743583759853255,-0.08487330198014474,0.07119928311684777,0.19583925073154024
1681247656528019200,4.576019287109375,-0.9572678804397583,1.3201082944869995,0.9473113417625427,0.1922013908624649,0.14775343239307404,-0.9701688289642334,0.2528669834136963,0.033994004130363464,-0.3126528263092041,0.9717821664776826,-0.09256603627904511,0.07966878056883638,0.20180183839860574
1681247656543051000,4.591051025390625,-1.125512719154358,1.3514801263809204,1.0902293920516968,0.21410565078258514,0.15973949432373047,-0.9636607766151428,0.27199360728263855,0.021321281790733337,-0.3346332907676697,0.9685926320716179,-0.10157519115018776,0.08861205326332834,0.20894710767914026
1681247656558083000,4.6060830078125,-1.271030068397522,1.3033381700515747,1.2149577140808105,0.23612624406814575,0.17324160039424896,-0.9561546444892883,0.30273789167404175,0.004050269722938538,-0.39325636625289917,0.9648604206432189,-0.11165331118243867,0.09724301460203214,0.21707536352808682
1681247656573116200,4.6211162109375,-1.3116099834442139,1.261638879776001,1.3373461961746216,0.25793564319610596,0.18711039423942566,-0.9478707313537598,0.29719436168670654,0.004463702440261841,-0.43321752548217773,0.960607909070707,-0.12222862737670448,0.10547417871033501,0.22620311435875187
1681247656588148200,4.636148193359375,-1.1933727264404297,1.1836143732070923,1.3568488359451294,0.2793271541595459,0.19956709444522858,-0.9392280578613281,0.2781221866607666,0.04220840334892273,-0.5213432312011719,0.9560285364184631,-0.13235684047177687,0.11343566002464366,0.23584618539969265
1681247656603180300,4.65118017578125,-1.1603710651397705,1.0868703126907349,1.4433650970458984,0.299649715423584,0.20998568832874298,-0.9306535720825195,0.24788141250610352,0.05905729532241821,-0.5729475021362305,0.9512738062925628,-0.14161009637445598,0.1209123605809308,0.24577414476501064
1681247656618212000,4.666212158203125,-1.022208333015442,1.0079339742660522,1.1009571552276611,0.318757563829422,0.21934828162193298,-0.9221062660217285,0.1648087501525879,0.015331894159317017,-0.6092658042907715,0.9466907390939093,-0.15026022320725185,0.12794034353387612,0.2546172515077849
1681247656633245000,4.681244873046875,-1.0646346807479858,0.5528881549835205,1.225987195968628,0.333565890789032,0.22782546281814575,-0.914783775806427,0.1626041829586029,-0.002163231372833252,-0.5616719126701355,0.9424849603655359,-0.15793691305515506,0.13290612149703757,0.2628956037703276
1681247656648277000,4.696277099609375,-1.1464619636535645,0.20730093121528625,1.0998386144638062,0.34272944927215576,0.2368963658809662,-0.909074604511261,0.21598637104034424,-0.06793579459190369,-0.367719829082489,0.9383993307587025,-0.16526364740017932,0.13472423665075742,0.2719266734010996
1681247656663309000,4.71130908203125,-1.1734201908111572,-0.055957600474357605,1.0148121118545532,0.34746289253234863,0.2474249005317688,-0.9044614434242249,0.14089468121528625,-0.1430700272321701,-0.28866904973983765,0.9346869926448278,-0.17258049242589935,0.13410911905739642,0.28034103270351884
1681247656678342100,4.726342041015625,-1.0745400190353394,-0.22639112174510956,0.9679444432258606,0.3492206335067749,0.25759199261665344,-0.9009391665458679,0.058128029108047485,-0.15810465812683105,-0.15248185396194458,0.9312023223400512,-0.1792170458591357,0.1319532893457163,0.2886728903426209
1681247656693374200,4.741374267578125,-0.9335965514183044,-0.29186123609542847,0.8424299359321594,0.3492558002471924,0.26640865206718445,-0.8983578681945801,0.020266324281692505,-0.15802547335624695,-0.11230802536010742,0.928090617603976,-0.18476777538797912,0.12915858026719546,0.2963559408764329
1681247656708406300,4.75640625,-0.8530041575431824,-0.3729557991027832,0.7715874314308167,0.3480517268180847,0.2741928696632385,-0.8964810371398926,-0.021300017833709717,-0.13574984669685364,-0.04785490036010742,0.9253609966527455,-0.18943854455720507,0.1259861478559325,0.303228674084674
1681247656723438000,4.77143798828125,-0.7920091152191162,-0.5177675485610962,0.7757419943809509,0.3453250527381897,0.2812233567237854,-0.8953569531440735,-0.014377206563949585,-0.1490364372730255,-0.0029889941215515137,0.9228122197199631,-0.1934015296338392,0.12213674299325637,0.309993693478136
1681247656738471000,4.786470947265625,-0.7152727842330933,-0.6638403534889221,0.7853975296020508,0.34061840176582336,0.2873368263244629,-0.8952187895774841,-0.013607263565063477,-0.177488774061203,0.07132047414779663,0.9204131198381699,-0.19650667926916565,0.11737008646216408,0.3169369439343282
1681247656753503000,4.8015029296875,-0.6635472774505615,-0.7318177819252014,0.8512241840362549,0.3346955180168152,0.29251620173454285,-0.8957751989364624,-0.022027671337127686,-0.17598482966423035,0.0936359167098999,0.9180407083161732,-0.19888509218718675,0.11205856700651813,0.3241742955176729
1681247656768535000,4.81653515625,-0.5235448479652405,-0.7891674041748047,0.9465273022651672,0.3283938765525818,0.29610514640808105,-0.8969276547431946,-0.03975862264633179,-0.14089271426200867,0.13533097505569458,0.9155471647571557,-0.20039326246984146,0.1066710513657715,0.3320199414654991
1681247656783568100,4.831568115234375,-0.37846970558166504,-0.8363450169563293,1.0518710613250732,0.32184097170829773,0.29729822278022766,-0.8989061117172241,-0.03550979495048523,-0.13209131360054016,0.14101731777191162,0.9129929549145898,-0.20064054922806718,0.1014412188208202,0.34043653014753994
1681247656798600200,4.84660009765625,-0.24635891616344452,-0.878736138343811,1.1623553037643433,0.3151799738407135,0.29615020751953125,-0.9016411304473877,-0.04395496845245361,-0.08333587646484375,0.1601555347442627,0.9102935719971892,-0.19969868635397978,0.09643590450722907,0.3495516232450425
1681247656813632000,4.861632080078125,-0.18060040473937988,-0.9265947341918945,1.2626038789749146,0.30829939246177673,0.29332393407821655,-0.9049378633499146,-0.040461838245391846,-0.07004204392433167,0.18069469928741455,0.907383740238843,-0.1978757489197294,0.09152181999306641,0.3593380154115584
1681247656828664000,4.8766640625,-0.111252062022686,-0.9680750966072083,1.3242669105529785,0.3010120689868927,0.2893449664115906,-0.9086645245552063,-0.0727863609790802,-0.08301565051078796,0.24054324626922607,0.9042571782755521,-0.19538032137871997,0.08656943207658925,0.36966362410379583
1681247656843697200,4.891697265625,-0.0852213054895401,-1.0018336772918701,1.3664218187332153,0.2933689057826996,0.2847222685813904,-0.912615954875946,-0.09129679203033447,-0.08828064799308777,0.2587158679962158,0.9009322960570737,-0.19245057305001975,0.08157691681022454,0.3803011794845893
1681247656858729200,4.906729248046875,-0.0036812834441661835,-1.0313994884490967,1.370871663093567,0.28516295552253723,0.279289573431015,-0.9168857336044312,-0.12207701802253723,-0.09087401628494263,0.29574620723724365,0.8975102636453118,-0.18894058977982855,0.07654139418436469,0.3910477321205747
1681247656873761300,4.92176123046875,-0.017167266458272934,-1.0321781635284424,1.4010072946548462,0.2766626179218292,0.2735353708267212,-0.9212145209312439,-0.12770631909370422,-0.08202230930328369,0.2937883734703064,0.8939532317015253,-0.18514064108140837,0.07152397465705262,0.40181466498176194
1681247656888794000,4.936794189453125,-0.03534802794456482,-1.0348554849624634,1.435839295387268,0.2680922746658325,0.26810577511787415,-0.9253355264663696,-0.13479149341583252,-0.07154202461242676,0.33167707920074463,0.8901065502044969,-0.18142439460415474,0.06646369261923987,0.412769010386118
1681247656903826000,4.951825927734375,-0.01086350902915001,-1.0021268129348755,1.4288846254348755,0.2595522999763489,0.2627054750919342,-0.9293107390403748,-0.13806182146072388,-0.0780436098575592,0.34886640310287476,0.8860586938784346,-0.17765675776737896,0.06150368882069664,0.42374000251200106
1681247656918858000,4.96685791015625,-0.04614698514342308,-0.9161335825920105,1.409769892692566,0.25162410736083984,0.2576301097869873,-0.9329051375389099,-0.16413024067878723,-0.07540968060493469,0.3482646942138672,0.8818824427208429,-0.1740977400406286,0.056898106151565334,0.4344376747866729
1681247656933890000,4.98189013671875,-0.04717256873846054,-0.8510808348655701,1.390880823135376,0.24464592337608337,0.25312405824661255,-0.9359896183013916,-0.16781792044639587,-0.06530362367630005,0.3640596866607666,0.8775443231851218,-0.17095319074996118,0.0527274873280661,0.44487182549236265
1681247656948923100,4.996923095703125,-0.0020576606038957834,-0.7864328622817993,1.3453236818313599,0.23815947771072388,0.24837778508663177,-0.9389294981956482,-0.17391997575759888,-0.05626961588859558,0.3511762022972107,0.8732065261834421,-0.16773925788247154,0.048977583529174945,0.4549453340426115
1681247656963955200,5.011955078125,-0.04791473597288132,-0.6606664061546326,1.324310541152954,0.2327582687139511,0.24399957060813904,-0.9414286017417908,-0.1726233810186386,-0.03161248564720154,0.33112281560897827,0.868844952195678,-0.16489386851608107,0.045778987020956854,0.4645672555394836
1681247656978987000,5.026987060546875,-0.09698837995529175,-0.5495536923408508,1.3020704984664917,0.22897279262542725,0.24047227203845978,-0.9432626962661743,-0.18498170375823975,-0.014733746647834778,0.3251291513442993,0.8643073184557407,-0.16279718870212592,0.04319395218564394,0.47392431529241436
1681247656994020000,5.04202001953125,-0.16841648519039154,-0.4256472587585449,1.2366092205047607,0.22659653425216675,0.2379879653453827,-0.9444658756256104,-0.19206589460372925,-0.023998692631721497,0.31815361976623535,0.8597346809424328,-0.1614868972223367,0.04109813726845286,0.48279318556129697
1681247657009052200,5.05705224609375,-0.24448078870773315,-0.29946455359458923,1.1553117036819458,0.22573499381542206,0.23692333698272705,-0.9449397325515747,-0.20997266471385956,-0.02607738971710205,0.3050318956375122,0.8552062473479353,-0.16116527518285165,0.03944487181180288,0.49101145315469397
1681247657024084000,5.072083984375,-0.22769568860530853,-0.19477035105228424,1.031938910484314,0.2261616289615631,0.23672166466712952,-0.9448882341384888,-0.2197529375553131,-0.021481186151504517,0.29210197925567627,0.850899763016775,-0.16152490433118438,0.03828298352220713,0.49841126153912196
1681247657039117000,5.087116943359375,-0.05940483883023262,-0.07544288784265518,0.8817975521087646,0.22756443917751312,0.23553647100925446,-0.9448476433753967,-0.21880589425563812,-0.0038317441940307617,0.21025896072387695,0.8471546956225068,-0.16165507749975952,0.037997740991262775,0.5047305317548131
1681247657054149000,5.102149169921875,-0.021466512233018875,0.05865126848220825,0.7443971037864685,0.2304157167673111,0.23298430442810059,-0.9447893500328064,-0.2154163271188736,0.030916452407836914,0.1391710638999939,0.8440322386253416,-0.16152733057595786,0.03891327402182054,0.5099062807916995
1681247657069181200,5.11718115234375,-0.08981718122959137,0.1438463181257248,0.6349901556968689,0.23429980874061584,0.23140598833560944,-0.9442218542098999,-0.19056811928749084,0.08983729779720306,0.0748981237411499,0.8412809175217123,-0.16209276769035175,0.040187240181669553,0.5141570891871459
1681247657084213000,5.132212890625,0.03271171823143959,0.1840810924768448,0.4551551938056946,0.23846758902072906,0.23008178174495697,-0.9435017704963684,-0.18277300894260406,0.08142639696598053,0.06573992967605591,0.8390200590325804,-0.16282356004542917,0.04168450773839352,0.517490555392932
1681247657099246000,5.14724609375,0.24059663712978363,0.24593806266784668,0.16637079417705536,0.24248339235782623,0.22715789079666138,-0.9431867003440857,-0.18701769411563873,0.08171050250530243,-0.03719049692153931,0.8378840481689979,-0.16273449615924912,0.04386505925095277,0.5191760971563513
1681247657114278100,5.162278076171875,0.39172860980033875,0.32565978169441223,-0.0994315892457962,0.24670536816120148,0.22237712144851685,-0.9432311058044434,-0.18911869823932648,0.12445518374443054,-0.10275888442993164,0.8380734699948137,-0.16178295871490897,0.04701838143508858,0.5188916608995526
1681247657129310200,5.177310302734375,0.4386073052883148,0.3226432204246521,-0.31027430295944214,0.25070884823799133,0.21710173785686493,-0.9434044361114502,-0.12728050351142883,0.17297396063804626,-0.2116553783416748,0.8392668058061423,-0.1604573450617896,0.050509618738089075,0.5170431982394305
1681247657144343000,5.192343017578125,0.3403595983982086,0.260259747505188,-0.545635461807251,0.25351443886756897,0.2131190001964569,-0.9435628056526184,-0.09116095304489136,0.16371206939220428,-0.2525584101676941,0.841263030548324,-0.15927527710139508,0.05338536858768064,0.5138656241891066
1681247657159375000,5.207375,0.225941464304924,0.20574218034744263,-0.7742827534675598,0.25466352701187134,0.21161790192127228,-0.9435911774635315,-0.06795701384544373,0.09628920257091522,-0.28397834300994873,0.8440533214554085,-0.15863042789186677,0.05514333787857044,0.5092833990333971
1681247657174407000,5.222406982421875,0.10316655039787292,0.16104954481124878,-0.9954034090042114,0.25442826747894287,0.212722510099411,-0.9434062838554382,-0.06157243251800537,0.07328823208808899,-0.30941659212112427,0.847527143288866,-0.1586722191328555,0.05585687170345512,0.5033894197870888
1681247657189440000,5.23743994140625,0.04758414253592491,0.1261671930551529,-1.219741940498352,0.25300246477127075,0.21601074934005737,-0.9430424571037292,-0.04351454973220825,0.06450682878494263,-0.33678847551345825,0.851694247099744,-0.15928394715829006,0.05574388980267101,0.49612332743173965
1681247657204472000,5.25247216796875,0.20193669199943542,0.1383727341890335,-1.4822137355804443,0.25033247470855713,0.21954406797885895,-0.942939043045044,-0.02880534529685974,0.06965579092502594,-0.36121439933776855,0.8567653145366255,-0.15959060808132908,0.05532904575280063,0.4872606550769074
1681247657219504000,5.267504150390625,0.4032999873161316,0.2892397344112396,-1.729614019393921,0.24783842265605927,0.221177339553833,-0.9432161450386047,-0.037969037890434265,0.151259183883667,-0.5121671557426453,0.8628865674006903,-0.15898459582579175,0.055819541708950024,0.47648189132813473
1681247657234536200,5.2825361328125,0.5626524090766907,0.4099733233451843,-1.937175989151001,0.24667128920555115,0.2211976796388626,-0.94351726770401,-0.04212723672389984,0.2112364023923874,-0.5955299139022827,0.8698045896807038,-0.157872711728746,0.05759827892854533,0.4638952236983154
1681247657249569300,5.2975693359375,0.6646221876144409,0.459046870470047,-2.1183393001556396,0.24616600573062897,0.21988345682621002,-0.9439563155174255,0.027073130011558533,0.23786494135856628,-0.7061901092529297,0.8773211638401134,-0.1561889440229592,0.06022326738971707,0.44976200308326475
1681247657264601000,5.31260107421875,0.6266063451766968,0.4461662173271179,-2.2428536415100098,0.24553798139095306,0.21866467595100403,-0.9444029331207275,0.07334019243717194,0.22350451350212097,-0.7341859340667725,0.885111813364171,-0.15440505059449158,0.06290962098016586,0.434486693994448
1681247657279633200,5.327633056640625,0.5314623117446899,0.33820754289627075,-2.3320987224578857,0.24356025457382202,0.21883225440979004,-0.9448760747909546,0.15158133208751678,0.15076611936092377,-0.6891265511512756,0.8929438447604178,-0.15287322874740297,0.06474352295637668,0.41843690340926715
1681247657294666000,5.342666015625,0.38188931345939636,0.19964274764060974,-2.4153897762298584,0.23955665528774261,0.2208888828754425,-0.9454209208488464,0.17330040037631989,0.1189243495464325,-0.6291945576667786,0.9006567203167212,-0.1517533616269887,0.0652721771226343,0.40190544955773283
1681247657309698000,5.357697998046875,0.2169577181339264,0.07782256603240967,-2.4530575275421143,0.23323401808738708,0.22539442777633667,-0.9459382891654968,0.18018761277198792,0.05828171968460083,-0.4361112713813782,0.9081468398325436,-0.1513359461855418,0.0642517262847184,0.38501763939474537
1681247657324730000,5.372730224609375,0.16382941603660583,-0.030466893687844276,-2.4770894050598145,0.22510910034179688,0.2313327193260193,-0.9464729428291321,0.16362379491329193,0.033086806535720825,-0.31843483448028564,0.9153109614113114,-0.15134406503000541,0.06211676396342227,0.3680249621281273
1681247657339764500,5.387764404296875,0.19722822308540344,-0.10215252637863159,-2.5087993144989014,0.21532058715820312,0.23706680536270142,-0.9473311901092529,0.11445234715938568,0.007119610905647278,-0.13056492805480957,0.922280912190275,-0.15106702885966716,0.05927187434670257,0.350804393918404
1681247657354796500,5.402796630859375,0.30021053552627563,-0.12941397726535797,-2.5223548412323,0.20457156002521515,0.24155890941619873,-0.9485777616500854,0.09401243925094604,0.004351750016212463,-0.06152355670928955,0.9290815205194224,-0.15016794802022992,0.056220146086433,0.3333113274780222
1681247657369828600,5.41782861328125,0.4633946418762207,-0.12503387033939362,-2.5034677982330322,0.19349120557308197,0.24368984997272491,-0.9503559470176697,0.05296875536441803,0.012230560183525085,0.03733104467391968,0.9357060810957433,-0.14822767015517038,0.053390871387286105,0.31564579682246413
1681247657384861700,5.43286181640625,0.6031821966171265,-0.09299471974372864,-2.431009292602539,0.18288472294807434,0.24301572144031525,-0.95262610912323,0.04672953486442566,0.00645020604133606,0.06706702709197998,0.942032788926402,-0.1451655134246346,0.05112643188208194,0.2981395828420461
1681247657399893500,5.4478935546875,0.7513414025306702,-0.05628544092178345,-2.350269079208374,0.1731693595647812,0.23977354168891907,-0.9552596807479858,0.02069355547428131,-0.0054290443658828735,0.12197721004486084,0.9479836232354041,-0.1411376275021701,0.049500867560778566,0.2809928734389864
1681247657414925600,5.462925537109375,0.9328629970550537,-0.018007826060056686,-2.291058301925659,0.1643427312374115,0.23348373174667358,-0.9583719372749329,0.011408001184463501,-0.009530499577522278,0.14851176738739014,0.953635727371262,-0.1358609800043664,0.04853672593926566,0.2641303366028369
1681247657429957600,5.47795751953125,1.060294508934021,0.015282752923667431,-2.1855759620666504,0.15664196014404297,0.22449256479740143,-0.9618037343025208,-0.007746696472167969,-0.012456446886062622,0.16863662004470825,0.9589353831207156,-0.1295087594982914,0.048224729756000194,0.247678862657284
1681247657444990700,5.49299072265625,1.1509864330291748,0.06743570417165756,-2.0393354892730713,0.15015777945518494,0.2132943868637085,-0.9653797745704651,-0.011302798986434937,-0.003165602684020996,0.1820698380470276,0.9637970263038712,-0.12231556272937748,0.04846655027687205,0.23191632371629164
1681247657460022800,5.508022705078125,1.1830600500106812,0.13283628225326538,-1.8345792293548584,0.14562219381332397,0.20062509179115295,-0.9687846899032593,-0.017311036586761475,0.016278579831123352,0.18092763423919678,0.968069028810319,-0.11472449180694368,0.04945655682966769,0.21733578121842964
1681247657475054600,5.5230546875,1.2475097179412842,0.18015266954898834,-1.6789164543151855,0.14278969168663025,0.1866576075553894,-0.9719928503036499,-0.02349647879600525,0.036929428577423096,0.1946033239364624,0.9718002279088463,-0.10675376655346279,0.05106096256801252,0.2039627296549699
1681247657490087400,5.53808740234375,1.2510401010513306,0.2080460786819458,-1.5206048488616943,0.1413622796535492,0.17175576090812683,-0.9749444723129272,-0.030995458364486694,0.06028464436531067,0.22564637660980225,0.9750703063807916,-0.09851356101512221,0.05313055078754258,0.1915991833165908
1681247657505119500,5.553119384765625,1.161581039428711,0.18956907093524933,-1.35273277759552,0.14076998829841614,0.1569957286119461,-0.9775152802467346,-0.022911101579666138,0.0626697838306427,0.2554998993873596,0.9778585569475887,-0.09047561469198645,0.05528576595687099,0.180416928707996
1681247657520151600,5.568151611328125,1.0195555686950684,0.13116328418254852,-1.176253318786621,0.14028766751289368,0.14359113574028015,-0.9796432852745056,-0.004957467317581177,0.03779008984565735,0.3045639395713806,0.9801700021494643,-0.0831817745329501,0.05708898617767709,0.17055322127290204
1681247657535184600,5.5831845703125,0.8443286418914795,0.06901628524065018,-1.0292755365371704,0.1394818127155304,0.13216236233711243,-0.9813653230667114,0.0022418200969696045,0.03568431735038757,0.3235894441604614,0.9820670608611458,-0.07690708576748741,0.05833205521801307,0.16194759788980373
1681247657550216700,5.598216796875,0.6608060002326965,0.0020700120367109776,-0.8857759833335876,0.13822217285633087,0.12304464727640152,-0.9827281832695007,-0.0016254931688308716,0.02031167596578598,0.36140555143356323,0.9836097932784155,-0.07181307561362149,0.058981340347344674,0.1545187386620274
1681247657565248500,5.61324853515625,0.5203745365142822,-0.08425315469503403,-0.7555290460586548,0.13609282672405243,0.11602036654949188,-0.9838790893554688,-0.001983329653739929,0.015998661518096924,0.38040924072265625,0.984870139467501,-0.06776482701725442,0.058893082856533975,0.14822402433790843
1681247657580281600,5.628281494140625,0.32893964648246765,-0.1394069492816925,-0.6227318644523621,0.13318899273872375,0.11109629273414612,-0.9848443269729614,-0.010401517152786255,0.010104253888130188,0.3879357576370239,0.9858915141808483,-0.06477624151145885,0.0581539865847027,0.14296868703410656
1681247657595313700,5.643313720703125,0.1356772482395172,-0.18250995874404907,-0.46211495995521545,0.12990741431713104,0.1087288185954094,-0.9855465888977051,-0.016702458262443542,0.01769024133682251,0.4034543037414551,0.9866492264695331,-0.06311758650867776,0.05694619024663863,0.13891201716490154
1681247657610345700,5.658345703125,-0.058791302144527435,-0.20147991180419922,-0.31217634677886963,0.12638042867183685,0.10889453440904617,-0.9859868288040161,-0.024680599570274353,0.00659923255443573,0.4243565797805786,0.9871508493166082,-0.06278860908719303,0.05535512350193814,0.13611320344788558
1681247657625377500,5.67337744140625,-0.22208930552005768,-0.19820688664913177,-0.17425309121608734,0.12296143919229507,0.11146659404039383,-0.9861316680908203,-0.03571167588233948,0.0019519701600074768,0.4375629425048828,0.9874133972951892,-0.0637407593732629,0.05358429952919087,0.13446441297767123
1681247657640410600,5.68841064453125,-0.3351525366306305,-0.17399369180202484,-0.08992144465446472,0.11985278129577637,0.1158556267619133,-0.9860085248947144,-0.05727648735046387,0.0059400200843811035,0.45109641551971436,0.9874859632448079,-0.06567454253028918,0.051793800691722666,0.1337008366549609
1681247657655442700,5.703442626953125,-0.336944580078125,-0.09512258321046829,0.05431829020380974,0.11772607266902924,0.12104257941246033,-0.9856415390968323,-0.07059167325496674,0.006597183644771576,0.4493713974952698,0.9873898306791115,-0.06811855642049904,0.050389348046043884,0.1337243108566478
1681247657670474500,5.718474609375,-0.17831535637378693,0.019712921231985092,0.2033117711544037,0.11742706596851349,0.12487604469060898,-0.9851989150047302,-0.08365936577320099,0.05276676267385483,0.3908080458641052,0.9871292482480122,-0.07006848587869213,0.049909515070072755,0.13481655187675584
1681247657685507600,5.733507568359375,0.20467005670070648,0.11315232515335083,0.2799013555049896,0.11882664263248444,0.12430485337972641,-0.9851033091545105,-0.08603550493717194,0.089501291513443,0.3378254771232605,0.9868572408579582,-0.06997370257055163,0.05051756637181183,0.13661842129318766
1681247657700539600,5.74853955078125,0.4496529698371887,0.248826265335083,0.38974636793136597,0.12208566814661026,0.11869102716445923,-0.9853971600532532,-0.04875192046165466,0.21855872869491577,0.14468365907669067,0.9866275446166048,-0.06751746447823079,0.052371943040149964,0.1387971670187688
1681247657715571700,5.76357177734375,0.5743703842163086,0.34858134388923645,0.5907108783721924,0.12743611633777618,0.11003077030181885,-0.9857247471809387,-0.01871722936630249,0.28329503536224365,0.09023219347000122,0.9862446310495232,-0.06376619380053057,0.05542113079037505,0.1420699902170785
1681247657730604500,5.7786044921875,0.5221075415611267,0.36613211035728455,0.7393501400947571,0.13380926847457886,0.1004028469324112,-0.9859078526496887,0.044413357973098755,0.2529143989086151,0.050361037254333496,0.9856222376711344,-0.05971113811742662,0.05899695229066417,0.146638132667903
1681247657745636600,5.79363671875,0.3473786413669586,0.3698946237564087,0.8346380591392517,0.14044302701950073,0.09218219667673111,-0.985788106918335,0.04324229061603546,0.2096213847398758,0.05718398094177246,0.9847624724923323,-0.0564713511420898,0.06258538470867736,0.15210848671324068
1681247657760668400,5.80866845703125,0.10881111770868301,0.3427673876285553,0.8554506301879883,0.14672259986400604,0.0870303139090538,-0.9853416681289673,0.04509565234184265,0.1339779794216156,0.056768059730529785,0.9837036869273481,-0.05480666203571989,0.06576773941250955,0.15810725944111004
1681247657775701500,5.823701416015625,-0.10596216470003128,0.41005057096481323,0.9129419326782227,0.15343189239501953,0.08504430204629898,-0.984492838382721,0.05172254145145416,0.11495263129472733,0.025050699710845947,0.9824373422007144,-0.05482089276173561,0.0689075978818098,0.1645092962324469
1681247657790733600,5.838733642578125,-0.31421250104904175,0.4516664445400238,0.926362931728363,0.1610587239265442,0.08588942140340805,-0.9832004308700562,0.08520287275314331,0.12553635239601135,-0.07844507694244385,0.9809567970707348,-0.05639062806969756,0.07224873129197955,0.1712425812224629
1681247657805765600,5.853765625,-0.6062407493591309,0.4516422152519226,0.9571740627288818,0.16902759671211243,0.09033884108066559,-0.9814624786376953,0.09394237399101257,0.11608204990625381,-0.1266155242919922,0.9792692643655921,-0.05984995896824268,0.0754105477019089,0.17822183545240763
1681247657820798700,5.868798828125,-0.872900664806366,0.4229482412338257,0.9650333523750305,0.17684608697891235,0.09876976162195206,-0.9792701601982117,0.11387962102890015,0.07733191549777985,-0.18204575777053833,0.9773450022963165,-0.06535103838067957,0.07806519390352833,0.18555810813188345
1681247657835830800,5.883830810546875,-1.0538517236709595,0.4235743582248688,0.9006370306015015,0.18447227776050568,0.11058028042316437,-0.9765971302986145,0.11179237067699432,0.056854404509067535,-0.2157246470451355,0.9752663774102815,-0.07255046023105,0.08023625954751545,0.19275428889517324
1681247657850862600,5.898862548828125,-1.0995575189590454,0.48245686292648315,0.8825389742851257,0.19259992241859436,0.12399698048830032,-0.9734115600585938,0.10981403291225433,0.07293293625116348,-0.27364349365234375,0.9730541523455428,-0.08062879982143074,0.08242103785302683,0.19967835199051057
1681247657865895400,5.9138955078125,-0.9889806509017944,0.6091192364692688,0.8690372705459595,0.202200785279274,0.13679122924804688,-0.9697437882423401,0.10788832604885101,0.09033583104610443,-0.3043498396873474,0.9707072955570555,-0.0885991533793814,0.08531295743223079,0.20639570579803476
1681247657880927500,5.928927490234375,-0.8631396293640137,0.7837546467781067,0.8630465269088745,0.21412505209445953,0.14751885831356049,-0.9656027555465698,0.10237276554107666,0.12675786018371582,-0.3999978303909302,0.9682560663070191,-0.09584881570725415,0.0895077377010909,0.21279462245073777
1681247657895959600,5.94395947265625,-0.7806940078735352,0.9507337808609009,0.9004735350608826,0.22871196269989014,0.15650323033332825,-0.9608317017555237,0.10734760761260986,0.13800665736198425,-0.4558400511741638,0.9656124314745066,-0.10262695876201278,0.09514121330544831,0.21910855634470291
1681247657910992600,5.95899267578125,-0.7347168326377869,1.0748426914215088,0.931370198726654,0.2454984337091446,0.1641487181186676,-0.9553982019424438,0.1535189151763916,0.1268974244594574,-0.5450137853622437,0.9627275728055011,-0.10913013205993093,0.10193877469152156,0.22551012244841023
1681247657926024700,5.974024658203125,-0.7489164471626282,1.1261106729507446,0.9210429787635803,0.2636836767196655,0.17116382718086243,-0.9493017792701721,0.16267740726470947,0.10962840914726257,-0.5895623564720154,0.959628633676306,-0.11562814318013853,0.10944972154329208,0.23187048308416464
1681247657941056500,5.989056396484375,-0.8634647727012634,1.0882426500320435,0.9479771256446838,0.2819526791572571,0.1788070797920227,-0.9426190853118896,0.18441694974899292,0.0643417239189148,-0.6472246646881104,0.9563353042355849,-0.12259563424930016,0.116879303571814,0.2381857930707523
1681247657956088600,6.004088623046875,-0.8738545179367065,0.9692779183387756,0.8791384100914001,0.29928654432296753,0.1871652454137802,-0.9356263875961304,0.16696104407310486,0.013960853219032288,-0.6462675333023071,0.9528585730753802,-0.1299707245558107,0.12367060584714268,0.24469107759444472
1681247657971121700,6.01912158203125,-0.9010971784591675,0.6545082926750183,0.6985046863555908,0.31306326389312744,0.1958073079586029,-0.929328203201294,0.16841256618499756,-0.036551326513290405,-0.555321455001831,0.949754169974854,-0.13699934968812583,0.1287131583517096,0.25026229650698545
1681247657986153700,6.03415380859375,-0.9603567123413086,0.2777135670185089,0.6420755386352539,0.32160109281539917,0.20568546652793884,-0.9242652654647827,0.17498096823692322,-0.04932865500450134,-0.4728142023086548,0.947031853751556,-0.14392459509814048,0.13096981018375536,0.2554668224324433
1681247658001185500,6.049185546875,-0.9471096396446228,-0.026352306827902794,0.5244026780128479,0.3251023590564728,0.21615788340568542,-0.9206433892250061,0.1719527244567871,-0.09414859116077423,-0.2770037055015564,0.9447124785847058,-0.15040979230313994,0.1305955816065079,0.2604610877268015
1681247658016218600,6.064218505859375,-0.8909957408905029,-0.14557456970214844,0.32575246691703796,0.3251478672027588,0.226759135723114,-0.9180735945701599,0.1230790913105011,-0.11971873044967651,-0.1872730851173401,0.9429083202227203,-0.1563104527834366,0.1285699678499314,0.2645007730068619
1681247658031250700,6.079250732421875,-0.8630732297897339,-0.12521657347679138,0.17282390594482422,0.324142187833786,0.2376384437084198,-0.9156745076179504,-0.01452609896659851,-0.1494426280260086,-0.05663079023361206,0.9414995584354425,-0.16201053195252543,0.1261559656516989,0.2672376513958104
1681247658046282500,6.094282470703125,-0.8050549626350403,-0.14485178887844086,0.05058453977108002,0.3227503299713135,0.24856022000312805,-0.9132634401321411,-0.04502508044242859,-0.16877201199531555,0.004663586616516113,0.940362545418226,-0.16754097367060458,0.12368634339061191,0.2689799605993051
1681247658061315600,6.109315673828125,-0.7609038352966309,-0.22790886461734772,-0.031624045222997665,0.32025831937789917,0.25929978489875793,-0.911152184009552,-0.04614940285682678,-0.23094895482063293,0.067249596118927,0.9395086891036799,-0.17271459563620098,0.12080391454754602,0.26999933597049347
1681247658076347600,6.12434765625,-0.6980372071266174,-0.3665951192378998,-0.11419375985860825,0.3159121870994568,0.26966628432273865,-0.9096590876579285,-0.042535752058029175,-0.24389421939849854,0.09360378980636597,0.9389676524547165,-0.17734141274372006,0.1171345061748557,0.2704984773168491
1681247658091379700,6.139379638671875,-0.687092661857605,-0.5132838487625122,-0.08167416602373123,0.3094390630722046,0.2796066701412201,-0.9088826179504395,-0.03398740291595459,-0.2140243649482727,0.11072587966918945,0.9386433357267238,-0.18140446761240836,0.1124771313773796,0.2709063246206709
1681247658106412500,6.15441259765625,-0.6361322402954102,-0.658248245716095,0.01900690607726574,0.30130448937416077,0.28891634941101074,-0.9087039828300476,-0.03505387902259827,-0.19368624687194824,0.13094830513000488,0.9382548472840533,-0.1849723009690127,0.10692637495705201,0.27208427116913864
1681247658121444600,6.169444580078125,-0.37897372245788574,-0.6613998413085938,0.08760114759206772,0.2924045920372009,0.2958056926727295,-0.9093946218490601,-0.06971782445907593,-0.1469714343547821,0.15870797634124756,0.937935242766433,-0.1872380857006399,0.10121560449493953,0.2738150876055709
1681247658136476400,6.184476318359375,-0.059312377125024796,-0.5761001110076904,0.16939961910247803,0.28447991609573364,0.2982356548309326,-0.911112904548645,-0.09102895855903625,-0.11786150932312012,0.15986168384552002,0.9378415000489894,-0.1873926454151874,0.09657926100143385,0.2756987217579851
1681247658151509500,6.199509521484375,0.20689311623573303,-0.526299238204956,0.28072506189346313,0.2780418395996094,0.29620930552482605,-0.9137575030326843,-0.10082626342773438,-0.09412190318107605,0.19261187314987183,0.9378676672580742,-0.18555133894215478,0.09323061170725062,0.2779982512097324
1681247658166541600,6.21454150390625,0.4081785976886749,-0.552586555480957,0.3710176944732666,0.27212128043174744,0.2905486524105072,-0.9173502922058105,-0.09391385316848755,-0.10603934526443481,0.22043561935424805,0.9379826864383043,-0.1819951817652308,0.09056831430228642,0.2808268048641844
1681247658181573600,6.22957373046875,0.4593297839164734,-0.6103265285491943,0.34847721457481384,0.26573923230171204,0.2827025353908539,-0.9216625690460205,-0.07825449109077454,-0.125948965549469,0.2770397663116455,0.9381990407040262,-0.1772847467099529,0.08797056363439029,0.2839258368196607
1681247658196606700,6.244606689453125,0.3821548521518707,-0.6587172150611877,0.40367603302001953,0.25856947898864746,0.2753255367279053,-0.9259253144264221,-0.07799693942070007,-0.13416644930839539,0.2953253388404846,0.938365789307585,-0.17269308908876263,0.0849378703740773,0.28711016060479005
1681247658211638800,6.259638671875,0.2985754609107971,-0.6863890886306763,0.4520438313484192,0.25087085366249084,0.2689814567565918,-0.9298993349075317,-0.08493152260780334,-0.1686549186706543,0.34708988666534424,0.9382869362834654,-0.1685767575853653,0.08143830585935494,0.2908047505903086
1681247658226670600,6.274670654296875,0.1768520027399063,-0.6582125425338745,0.49610477685928345,0.24334464967250824,0.2638660967350006,-0.9333584904670715,-0.09509024024009705,-0.17284739017486572,0.35975009202957153,0.9379510547464709,-0.1651218551613412,0.07781727553043774,0.29483394956625536
1681247658241703400,6.289703369140625,0.0590500608086586,-0.5861194729804993,0.5784323811531067,0.23669639229774475,0.2602479159832001,-0.9360800385475159,-0.10591331124305725,-0.18906566500663757,0.40157991647720337,0.9372519354593836,-0.1625802327461945,0.07434811169898822,0.2993308972415494
1681247658256735500,6.304735595703125,-0.1400342732667923,-0.5001773834228516,0.6649875044822693,0.23145075142383575,0.2585574984550476,-0.937858521938324,-0.09575434029102325,-0.21238437294960022,0.4121169447898865,0.9361117333955797,-0.16124959823503063,0.07119911053301493,0.3043421802421008
1681247658271767600,6.319767578125,-0.3415915369987488,-0.42757803201675415,0.7781979441642761,0.22766532003879547,0.25945013761520386,-0.9385383129119873,-0.06570853292942047,-0.25117987394332886,0.4724738597869873,0.9343902479758037,-0.16147980084963737,0.06822848719039144,0.31013556876645426
1681247658286800600,6.334800537109375,-0.5329554080963135,-0.3391142189502716,0.8426448106765747,0.22537775337696075,0.2628225088119507,-0.938152015209198,-0.058889105916023254,-0.2642873525619507,0.482890784740448,0.9321463054712589,-0.16320887521218783,0.06547407470608933,0.31651136078734804
1681247658301832700,6.349832763671875,-0.7250875234603882,-0.19412505626678467,0.9102776646614075,0.2250588983297348,0.2687866687774658,-0.9365373849868774,-0.0779946893453598,-0.24486085772514343,0.48034536838531494,0.9293940628866281,-0.16656569436439317,0.06314414549011368,0.32325778469480304
1681247658316864500,6.364864501953125,-0.8354697227478027,0.0071422685869038105,1.0122954845428467,0.22769954800605774,0.27663734555244446,-0.9336084127426147,-0.09496334195137024,-0.23517921566963196,0.4627527594566345,0.9260756463685168,-0.1714035138017557,0.06177880782206143,0.33043619721290934
1681247658331896000,6.37989599609375,-0.6461679339408875,0.1793433278799057,1.0729364156723022,0.23351021111011505,0.2837914526462555,-0.9300190210342407,-0.11291998624801636,-0.1836327612400055,0.4181019067764282,0.922383710027989,-0.17651743361109704,0.06190374897588327,0.3379614750835079
1681247658346928000,6.39492822265625,-0.1800234019756317,0.27956047654151917,1.0228610038757324,0.24125774204730988,0.2858342230319977,-0.9274122714996338,-0.11036784946918488,-0.15660753846168518,0.3669264316558838,0.919022074034767,-0.1794892079850425,0.06385526371050254,0.34511531982993277
1681247658361960200,6.409960205078125,0.3004981577396393,0.35882943868637085,0.9923222064971924,0.24996283650398254,0.2812557816505432,-0.9265062212944031,-0.043679267168045044,0.007150620222091675,0.17321032285690308,0.9163174886067826,-0.1793941608257193,0.06756201250455497,0.3515898572538907
1681247658376993300,6.4249931640625,0.6426717638969421,0.4196597933769226,0.9998884797096252,0.2595188021659851,0.2705966830253601,-0.9270530939102173,-0.0007755160331726074,0.12022668123245239,0.06847155094146729,0.9141256392435935,-0.1765242837821319,0.07288778456483422,0.3576324053009348
1681247658392025300,6.440025390625,0.6897165179252625,0.44492679834365845,1.0781817436218262,0.26969707012176514,0.2569805085659027,-0.9280218482017517,0.05311787128448486,0.2153858244419098,-0.04654175043106079,0.911966323465952,-0.17243848372486506,0.07908256496991613,0.36376970686329296
1681247658407057400,6.455057373046875,0.604124903678894,0.4512174427509308,1.1318700313568115,0.2801051735877991,0.24330325424671173,-0.9286251068115234,0.03805580735206604,0.17986874282360077,-0.04754060506820679,0.9094541219466223,-0.16852820702288224,0.08535619695606238,0.37041303973565715
1681247658422090200,6.47009033203125,0.49647989869117737,0.4870377480983734,1.059799313545227,0.29054582118988037,0.2308904379606247,-0.9285864233970642,-0.015551894903182983,0.0678766667842865,-0.04336792230606079,0.9067339860636962,-0.1653496493688067,0.09146739961889971,0.37699691404174407
1681247658437122000,6.4851220703125,0.41046300530433655,0.5203496813774109,0.9336386322975159,0.30099359154701233,0.2201768308877945,-0.9278604388237,-0.04347100853919983,0.04418167471885681,-0.03501486778259277,0.9040765248292238,-0.16302673516919602,0.09742714981823693,0.38285248582574505
1681247658452154000,6.500154052734375,0.2304476946592331,0.564428985118866,0.7709967494010925,0.31133267283439636,0.21158963441848755,-0.9264457821846008,-0.05197906494140625,0.002948939800262451,-0.0713721513748169,0.9015976719588109,-0.16168933995931228,0.10311965279150585,0.3877429521842444
1681247658467187200,6.515187255859375,-0.0057833692990243435,0.5797791481018066,0.6466665267944336,0.3215367794036865,0.2065380960702896,-0.92409747838974,-0.05847525596618652,0.0008746087551116943,-0.09692913293838501,0.8992261583823825,-0.16198526276387049,0.10822217851010722,0.3917157781605233
1681247658482219300,6.53021923828125,-0.38926082849502563,0.516904890537262,0.5329948663711548,0.33102765679359436,0.2063990980386734,-0.9207714796066284,-0.05693402886390686,-0.017190128564834595,-0.18098938465118408,0.8967788926668109,-0.16447163626614653,0.11208634500337998,0.3951876645733243
1681247658497251300,6.545251220703125,-0.6531534194946289,0.4014038145542145,0.4084761142730713,0.33885684609413147,0.2113523930311203,-0.9167912602424622,-0.06056705117225647,-0.0142088383436203,-0.20323437452316284,0.894307929109161,-0.16901494997106,0.11418545008160741,0.3982574956416113
1681247658512284200,6.5602841796875,-0.776949942111969,0.30798783898353577,0.26921916007995605,0.3447754681110382,0.21960201859474182,-0.9126362204551697,-0.061251938343048096,0.015307039022445679,-0.23767811059951782,0.8920494589976293,-0.17465407328621751,0.1147948482330317,0.4007066598490001
1681247658527316000,6.57531591796875,-0.7637174725532532,0.26050207018852234,0.13386985659599304,0.3493034541606903,0.22923436760902405,-0.9085365533828735,-0.08306810259819031,0.03733667731285095,-0.22439801692962646,0.8901627380262912,-0.18055464177251235,0.11459376374315253,0.4023415268960116
1681247658542348000,6.59034814453125,-0.5663979053497314,0.23947884142398834,-0.03706648200750351,0.3528244197368622,0.2381521612405777,-0.904874861240387,-0.12986299395561218,0.062888503074646,-0.24240297079086304,0.8888724016778526,-0.18575832158276614,0.11426468684080722,0.4029185959916697
1681247658557381000,6.605381103515625,-0.273837149143219,0.291905015707016,-0.2681708037853241,0.3558027744293213,0.24480704963207245,-0.9019278883934021,-0.1538069248199463,0.09273262321949005,-0.3074684739112854,0.8884947318301966,-0.1895522097245902,0.11448153624864948,0.40192171723099657
1681247658572413200,6.6204130859375,0.0913475975394249,0.39757153391838074,-0.45888376235961914,0.3590609133243561,0.2479666918516159,-0.899770975112915,-0.17108789086341858,0.2317391335964203,-0.513070821762085,0.8891915078651778,-0.191478614831393,0.11597612151295278,0.39902876931912273
1681247658587445200,6.6354453125,0.41805148124694824,0.5511128902435303,-0.6128240823745728,0.3634188175201416,0.24736590683460236,-0.8981853127479553,-0.154556542634964,0.29056745767593384,-0.6236346960067749,0.8907497695440876,-0.19161585914589377,0.11912472656873002,0.3945345996137844
1681247658602478300,6.650478271484375,0.5122354626655579,0.6474215984344482,-0.7421107292175293,0.36897435784339905,0.24446290731430054,-0.89671391248703,-0.12635961174964905,0.30671510100364685,-0.7597039341926575,0.8929159464208092,-0.1906935495421678,0.12360833712244497,0.38866196459498303
1681247658617510100,6.66551025390625,0.41955503821372986,0.6079743504524231,-0.9188377857208252,0.37459075450897217,0.2427753210067749,-0.8948418498039246,-0.10112270712852478,0.25174680352211,-0.7838996052742004,0.8953693834545007,-0.19018704521840038,0.12809355317629448,0.3817522335493165
1681247658632542200,6.680542236328125,0.36538612842559814,0.42486146092414856,-1.123231053352356,0.3778676390647888,0.24327583611011505,-0.8933268785476685,-0.00886431336402893,0.14147453010082245,-0.7711323499679565,0.8982984706673818,-0.1900251183402524,0.1312516812295796,0.3737960103677543
1681247658647575000,6.695574951171875,0.1652616709470749,0.14571931958198547,-1.3899751901626587,0.3771687150001526,0.24676156044006348,-0.8926659822463989,0.04252427816390991,0.13460136950016022,-0.7902563810348511,0.9018821781447335,-0.19024482991564418,0.13218896963866975,0.3646116881619414
1681247658662607000,6.710607177734375,-0.02008582279086113,-0.20272333920001984,-1.522961139678955,0.3713146150112152,0.25396108627319336,-0.893100917339325,0.11638680100440979,0.13136914372444153,-0.68621426820755,0.9059905556501501,-0.19108832106296111,0.13013379585938142,0.35458642594359235
1681247658677639200,6.72563916015625,-0.22886699438095093,-0.5431256294250488,-1.6415584087371826,0.3600315451622009,0.2644285261631012,-0.894681453704834,0.13944968581199646,0.1090303361415863,-0.5461602210998535,0.910296458772686,-0.19251263669711038,0.12489263178266524,0.3445303910951293
1681247658692672300,6.74067236328125,-0.32939413189888,-0.7461283206939697,-1.8312476873397827,0.3441835343837738,0.2774931788444519,-0.8969588875770569,0.0660947859287262,0.052630722522735596,-0.2815384268760681,0.9148921379935087,-0.1944058779499582,0.11716189946719671,0.33384416282784357
1681247658707704000,6.7557041015625,-0.323779821395874,-0.8524672389030457,-2.015669345855713,0.3249989151954651,0.291751503944397,-0.8995870351791382,0.0157603919506073,0.025722861289978027,-0.20397436618804932,0.9198324197394109,-0.1963696049949602,0.10791419391409277,0.3220278356776987
1681247658722736000,6.770736083984375,-0.14846472442150116,-0.8258862495422363,-2.145358085632324,0.30417048931121826,0.3049626648426056,-0.9024843573570251,-0.05623042583465576,0.04861399531364441,-0.13880586624145508,0.9250690379523104,-0.1976911751707688,0.0983666939919492,0.30901361630423446
1681247658737769200,6.785769287109375,0.1320399045944214,-0.7460140585899353,-2.217672109603882,0.2833252549171448,0.3148038685321808,-0.9058837294578552,-0.06874090433120728,0.053909510374069214,-0.12615972757339478,0.9305579522451239,-0.19755348935862413,0.08961448632944814,0.29496392141948613
1681247658752801300,6.80080126953125,0.41567400097846985,-0.6369679570198059,-2.2279107570648193,0.2632060945034027,0.3201638460159302,-0.9100646376609802,-0.08164176344871521,0.042735904455184937,-0.1102752685546875,0.9362313174699189,-0.19553978391576607,0.08204794690715024,0.2801843369620616
1681247658767833300,6.815833251953125,0.6584616303443909,-0.5167667269706726,-2.2488391399383545,0.2445768564939499,0.3212890028953552,-0.9148527383804321,-0.06646101176738739,0.026947081089019775,-0.08179032802581787,0.9419314167906062,-0.19188402322630285,0.07585612852041732,0.26493690344528853
1681247658782866200,6.8308662109375,0.8298400640487671,-0.502619743347168,-2.2363898754119873,0.22675572335720062,0.3189612329006195,-0.9202421307563782,-0.04744967818260193,-0.002631247043609619,0.007476627826690674,0.9476181862959405,-0.18684064234854988,0.07049474624322334,0.2492806491103886
1681247658797898200,6.845898193359375,0.9943027496337891,-0.4764518439769745,-2.17520809173584,0.20937247574329376,0.31345078349113464,-0.9262352585792542,-0.01575368642807007,0.022990256547927856,0.039516568183898926,0.953149594664681,-0.18050719616718372,0.06557063638880674,0.23371704996491022
1681247658812931300,6.860931396484375,1.1206653118133545,-0.4419516623020172,-2.0783796310424805,0.1930948942899704,0.30511972308158875,-0.9325321912765503,0.016698181629180908,0.09098318219184875,0.10236257314682007,0.9583926816997633,-0.17315052746470147,0.06126004101457451,0.2185166594653905
1681247658827963100,6.875963134765625,1.249163031578064,-0.4575793445110321,-1.9762165546417236,0.17765264213085175,0.2940162420272827,-0.9391453266143799,0.03740471601486206,0.1072746217250824,0.14347583055496216,0.9633151986992763,-0.16474420453974636,0.057329481211729115,0.20395231300565358
1681247658842995200,6.8909951171875,1.2421643733978271,-0.45854049921035767,-1.8722361326217651,0.16280508041381836,0.28116175532341003,-0.9457497596740723,0.05420541763305664,0.08076146245002747,0.21291589736938477,0.9678704644809976,-0.155755821100075,0.05352806733281809,0.19000450882506892
1681247658858028300,6.9060283203125,1.1365187168121338,-0.4826463460922241,-1.783250331878662,0.14860761165618896,0.2683902382850647,-0.9517785906791687,0.058911919593811035,0.06675383448600769,0.2587549090385437,0.9719237214068968,-0.1471102882522729,0.04969175203436421,0.17678719499075493
1681247658873060400,6.921060302734375,0.9660410284996033,-0.5300220847129822,-1.7320283651351929,0.13444198668003082,0.2569344937801361,-0.9570319056510925,0.06381544470787048,0.016197800636291504,0.32014530897140503,0.9754979587738122,-0.1393422796277047,0.04547295475171375,0.16407239264632978
1681247658888092200,6.936092041015625,0.8233658075332642,-0.6100199818611145,-1.672972559928894,0.1197848692536354,0.24734504520893097,-0.9614946842193604,0.07798430323600769,0.01206962764263153,0.36071038246154785,0.9786145326594179,-0.1326772854260208,0.04061279862391656,0.1518583918689751
1681247658903125200,6.951125244140625,0.7123237252235413,-0.7028287649154663,-1.604756236076355,0.10435150563716888,0.23905964195728302,-0.965381383895874,0.10048247873783112,0.00132732093334198,0.423297643661499,0.9813411420824745,-0.12681036540675494,0.035048940501672086,0.1402155591923021
1681247658918157000,6.966156982421875,0.5870475769042969,-0.7577436566352844,-1.5075606107711792,0.08815783262252808,0.23170065879821777,-0.9687842726707458,0.10910778492689133,0.004047617316246033,0.4413795471191406,0.9837166554709307,-0.12155630493400829,0.028843021149113645,0.12920394932278367
1681247658933189000,6.981189208984375,0.499830037355423,-0.7898682951927185,-1.3572912216186523,0.0719471201300621,0.22564716637134552,-0.9715487360954285,0.0994701161980629,0.01895122230052948,0.44832485914230347,0.9856795095436965,-0.11716290877960138,0.02232661391756756,0.11920728908426231
1681247658948222200,6.99622216796875,0.4226398468017578,-0.7716786861419678,-1.2213603258132935,0.05608521029353142,0.22017577290534973,-0.9738465547561646,0.09837950766086578,0.01894471049308777,0.43864452838897705,0.9873037972173081,-0.11326292449417531,0.015755626912932225,0.1102480282738077
1681247658963254300,7.011254150390625,0.36978018283843994,-0.7101907730102539,-1.0777589082717896,0.0414615161716938,0.21516315639019012,-0.9756975769996643,0.067287877202034,0.017945364117622375,0.4372149109840393,0.988627852914022,-0.10981310320221277,0.009606834879214295,0.10229356207787833
1681247658978286300,7.026286376953125,0.2630084455013275,-0.6620922684669495,-0.8958994746208191,0.02824566327035427,0.21097585558891296,-0.9770830869674683,0.06606891006231308,0.017204076051712036,0.45172297954559326,0.9896591048603071,-0.1069712589549548,0.003950080881537054,0.09547983173435254
1681247658993319200,7.041319091796875,0.143450528383255,-0.6088284850120544,-0.6736011505126953,0.016355864703655243,0.20825842022895813,-0.9779370427131653,0.06208956241607666,0.015542224049568176,0.5113385915756226,0.990376950753349,-0.10502274025757939,-0.0012994689804201648,0.09012235250096551
1681247659008351000,7.05635107421875,0.03908780217170715,-0.506503701210022,-0.4274890720844269,0.006447396241128445,0.20705899596214294,-0.9783071875572205,0.06322423368692398,0.007174387574195862,0.5302939414978027,0.99079785557161,-0.10398332170579204,-0.005819030130638691,0.08644829287840632
1681247659023383000,7.071383056640625,0.013899254612624645,-0.41742074489593506,-0.264519602060318,-0.0015637240139767528,0.2066592276096344,-0.9784117341041565,0.055991820991039276,-0.0005587786436080933,0.524264395236969,0.9910120649957754,-0.10345166872999771,-0.00958567203912487,0.08426789772411634
1681247659038416100,7.086416015625,0.0029571247287094593,-0.25472983717918396,-0.09040001034736633,-0.007102544419467449,0.20651079714298248,-0.9784185290336609,0.046821169555187225,0.018098562955856323,0.48955750465393066,0.991106631314045,-0.1031548526347611,-0.012239412809134688,0.08316904859927184
1681247659053448200,7.1014482421875,0.015824507921934128,-0.13323214650154114,0.13055048882961273,-0.009838327765464783,0.2063850611448288,-0.9784213900566101,0.056759100407361984,0.0700431615114212,0.4350406527519226,0.9910823609251538,-0.10297271575586653,-0.013635446788378889,0.08346567147984034
1681247659068480300,7.116480224609375,0.041418496519327164,-0.02850493974983692,0.3274630308151245,-0.010335439816117287,0.20604409277439117,-0.9784881472587585,0.07347629964351654,0.06731712818145752,0.40829771757125854,0.9909470593113511,-0.10275404218446726,-0.014055016507586485,0.08525267919973256
1681247659083513300,7.131513427734375,0.188692107796669,0.10508587956428528,0.5037403106689453,-0.008567439392209053,0.20452027022838593,-0.9788248538970947,0.0944133847951889,0.09111875295639038,0.3546793460845947,0.9907601356149822,-0.10201688350522271,-0.01342154194776806,0.0883560518876758
1681247659098545200,7.146545166015625,0.34550514817237854,0.3136550486087799,0.6342125535011292,-0.003856876166537404,0.20057757198810577,-0.9796702265739441,0.09936162829399109,0.12002484500408173,0.3105723261833191,0.9905960798935579,-0.10018567766616068,-0.011301013090760231,0.09249127642942652
1681247659113577200,7.1615771484375,0.3106600344181061,0.5214356780052185,0.7605305314064026,0.004415340255945921,0.19541813433170319,-0.9807100892066956,0.1259099692106247,0.16858026385307312,0.25144678354263306,0.9903922340254935,-0.09792975993652665,-0.007397507489834971,0.0973565548536609
1681247659128610000,7.176610107421875,0.06567392498254776,0.6598902344703674,0.9409857988357544,0.015664581209421158,0.1924223154783249,-0.9811871647834778,0.14574289321899414,0.1640687733888626,0.24276858568191528,0.9899162251518405,-0.09696168411744018,-0.0022006933076801857,0.10324483235980364
1681247659143642000,7.19164208984375,-0.3018459677696228,0.840579628944397,1.0928452014923096,0.029585514217615128,0.19354258477687836,-0.9806457161903381,0.19044622778892517,0.06671132147312164,0.18854671716690063,0.9890185540547497,-0.09829135830991825,0.003995448439197372,0.11029641106604886
1681247659158675200,7.20667529296875,-0.777770459651947,1.1022257804870605,1.2124834060668945,0.0473565049469471,0.20101501047611237,-0.9784427881240845,0.1927100270986557,0.035664066672325134,0.13292276859283447,0.9875533809959718,-0.10316613061415147,0.01163380448533739,0.11815165215167846
1681247659173707300,7.221707275390625,-0.9931577444076538,1.3192049264907837,1.290308952331543,0.0690462589263916,0.2129819691181183,-0.9746134281158447,0.2256009578704834,0.001968592405319214,0.05292153358459473,0.9855336012727088,-0.11072692838090695,0.02080483846626756,0.12661112906614683
1681247659189306600,7.237306640625,-1.146100401878357,1.5210003852844238,1.3601194620132446,0.0941976010799408,0.22724656760692596,-0.9692707657814026,0.2488657534122467,0.00010940432548522949,-0.03277391195297241,0.9922880126009235,-0.11450635782420268,0.04746484858853149,1.5150832005423367e-17
1681247659204339500,7.25233935546875,-1.0960100889205933,1.7077738046646118,1.468050241470337,0.12260204553604126,0.2411375343799591,-0.9627156853675842,0.31816333532333374,0.07287311553955078,-0.13449805974960327,0.9905889551861473,-0.12230021342909685,0.06070279033537738,0.009562600781089373
1681247659219371500,7.26737158203125,-1.1441996097564697,1.9101375341415405,1.5420149564743042,0.15425987541675568,0.25414395332336426,-0.954785168170929,0.336691677570343,0.08164095878601074,-0.21080315113067627,0.9884375623060525,-0.13005393013184435,0.07545452841657029,0.01959070039172851
1681247659234403600,7.282403564453125,-1.2151423692703247,2.07186222076416,1.6293400526046753,0.18890845775604248,0.2670030891895294,-0.9449989199638367,0.3932906687259674,0.10157299041748047,-0.28328782320022583,0.985694730411091,-0.1382355636741907,0.09160495346407307,0.03009144294853124
1681247659249436700,7.297436767578125,-1.1818188428878784,2.257582664489746,1.7021732330322266,0.2263522744178772,0.2788131833076477,-0.9332887530326843,0.4073910117149353,0.09635472297668457,-0.3070219159126282,0.9823244211603428,-0.1464715461910655,0.10909496164708424,0.04102838780005315
1681247659264468700,7.31246875,-1.1095232963562012,2.403820514678955,1.795910358428955,0.2662794291973114,0.28826725482940674,-0.9197810888290405,0.448686420917511,0.10005369782447815,-0.403751015663147,0.9783459437956213,-0.1541516972223769,0.12785424555091124,0.05224742888537018
1681247659279500800,7.327500732421875,-0.9585153460502625,2.4663007259368896,1.9033704996109009,0.30795398354530334,0.29465413093566895,-0.90462327003479,0.46353042125701904,0.11660078167915344,-0.48674941062927246,0.9737615908908417,-0.16099861997462445,0.14753915152994035,0.0640318164606986
1681247659294533600,7.34253369140625,-0.89507657289505,2.2531378269195557,1.7584357261657715,0.3483704924583435,0.29766568541526794,-0.8888380527496338,0.5406523942947388,0.13606545329093933,-0.6297470927238464,0.9688562432100428,-0.16665316561940563,0.16675636412466055,0.07573997974015748
1681247659309565400,7.3575654296875,-0.8628627061843872,1.8294246196746826,1.469019889831543,0.38259950280189514,0.30042263865470886,-0.8737069964408875,0.5246118307113647,0.12267312407493591,-0.6611135601997375,0.9640908917968021,-0.17212291710279148,0.18308524320000755,0.08592075044660495
1681247659324597500,7.372597412109375,-0.981846272945404,1.288394570350647,1.369508981704712,0.4094325006008148,0.30386751890182495,-0.8602496981620789,0.47890371084213257,0.051662296056747437,-0.5650737285614014,0.9597102671592787,-0.17774048535988077,0.195661594312343,0.09529520455440163
1681247659339630800,7.387630859375,-1.2314046621322632,0.7897787690162659,1.2999930381774902,0.4287824332714081,0.3094731867313385,-0.8487473130226135,0.4513140320777893,0.022451311349868774,-0.4703749418258667,0.955670468980594,-0.1843754732754911,0.2040392721945159,0.10520331690993094
1681247659354663000,7.402662841796875,-1.4843394756317139,0.4737517833709717,1.2168253660202026,0.44258853793144226,0.31860285997390747,-0.8382169008255005,0.2871478497982025,-0.09695366024971008,-0.32090169191360474,0.9517238721989275,-0.1927528206464503,0.20913605371151175,0.11545610771207812
1681247659369696000,7.417696044921875,-1.5828540325164795,0.2236255705356598,1.1402134895324707,0.45264801383018494,0.33001306653022766,-0.828372597694397,0.18843477964401245,-0.12195947766304016,-0.2844356298446655,0.9478166425747007,-0.20222498574218048,0.21194046857863028,0.1258167933296125
1681247659384727800,7.432727783203125,-1.4916815757751465,0.03515899181365967,1.101952314376831,0.4598734378814697,0.3415713906288147,-0.8196617960929871,0.06536462903022766,-0.10356476902961731,-0.25266486406326294,0.9441037501596041,-0.21159255325047263,0.21306735903749144,0.13601155206322854
1681247659399760000,7.447759765625,-1.3023627996444702,-0.1276930421590805,1.1503984928131104,0.4652104377746582,0.3510172665119171,-0.8126291632652283,0.024169474840164185,-0.09883522987365723,-0.24233299493789673,0.940695603349761,-0.21971677469602852,0.2130961304144351,0.14630939777978702
1681247659414792700,7.462792724609375,-1.0638893842697144,-0.3413954973220825,1.271842360496521,0.46886715292930603,0.3569242060184479,-0.8079410791397095,-0.016550838947296143,-0.08519566059112549,-0.16749227046966553,0.9377115723899915,-0.2258546465207602,0.21217717276970088,0.15705935497829754
1681247659429824800,7.47782470703125,-0.7928088307380676,-0.5448862910270691,1.4534187316894531,0.47080716490745544,0.3586174249649048,-0.8060609102249146,-0.019452154636383057,-0.0690055787563324,-0.11187732219696045,0.9351401844246804,-0.22972615782397957,0.21022710659941105,0.16894799546997377
1681247659444856800,7.49285693359375,-0.5113871693611145,-0.692459225654602,1.567195177078247,0.4713733494281769,0.35575059056282043,-0.8069997429847717,-0.06645086407661438,-0.060401469469070435,0.004753708839416504,0.9330009744474568,-0.23107727002111803,0.20761360697072787,0.18168374411445415
1681247659459890000,7.507889892578125,-0.32298263907432556,-0.757248044013977,1.6047492027282715,0.47091948986053467,0.3494468927383423,-0.8100134134292603,-0.10173305869102478,-0.054113030433654785,0.03952091932296753,0.9311812695635553,-0.23043283037878154,0.2046802624355807,0.19470020231918123
1681247659474921700,7.522921630859375,-0.2316400408744812,-0.7940194010734558,1.6451903581619263,0.4698904752731323,0.3412203788757324,-0.8141078948974609,-0.16489776968955994,-0.043719738721847534,0.07929044961929321,0.929456155537575,-0.22863853349303875,0.20166924022509958,0.20776251690699418
1681247659489953800,7.537953857421875,-0.2622002363204956,-0.8813875913619995,1.7520984411239624,0.468240350484848,0.3323162794113159,-0.8187288045883179,-0.18036800622940063,-0.04476436972618103,0.10132157802581787,0.9275519157273923,-0.226478264713514,0.1983511768218955,0.22138619612968496
1681247659504987000,7.55298681640625,-0.3427235186100006,-0.9483253359794617,1.8894597291946411,0.465909481048584,0.32308509945869446,-0.8237380981445312,-0.1898626685142517,-0.07162022590637207,0.16475677490234375,0.9252843124005162,-0.22422187521110307,0.1945649317942055,0.23604679178424595
1681247659520018700,7.568018798828125,-0.46467846632003784,-1.006176233291626,1.9685529470443726,0.46301892399787903,0.3146183490753174,-0.8286306858062744,-0.20072031021118164,-0.0733005702495575,0.19005036354064941,0.922474254793258,-0.22244655223028714,0.19026875562334988,0.2517073427046382
1681247659535051800,7.5830517578125,-0.523966908454895,-1.073807716369629,1.999512791633606,0.4593478739261627,0.3071172833442688,-0.8334737420082092,-0.22733795642852783,-0.07451227307319641,0.238777756690979,0.9192202736484971,-0.22109299422028836,0.18542117103770092,0.2679010477777916
1681247659550083800,7.598083740234375,-0.5783799886703491,-1.125435709953308,2.0121912956237793,0.45468077063560486,0.3002570569515228,-0.8385171890258789,-0.23316890001296997,-0.052698493003845215,0.24163919687271118,0.9156481775989431,-0.21985759127998147,0.18001123470855038,0.284335968577222
1681247659565115600,7.61311572265625,-0.5618086457252502,-1.1617317199707031,2.0191237926483154,0.4491756856441498,0.29373592138290405,-0.8437774181365967,-0.2470424771308899,0.008235514163970947,0.24741822481155396,0.9118117709337085,-0.2185455906756547,0.17420993437458276,0.3008122034259258
1681247659580148700,7.628148681640625,-0.6293232440948486,-1.2186591625213623,2.0533273220062256,0.4429738223552704,0.28769341111183167,-0.8491211533546448,-0.2483326494693756,0.021831154823303223,0.24578863382339478,0.9076304159433218,-0.2172580684135476,0.16804275517060366,0.31743902690514203
1681247659595180800,7.643180908203125,-0.6702307462692261,-1.2567692995071411,2.0634870529174805,0.43591412901878357,0.2823300361633301,-0.8545575737953186,-0.2579966187477112,0.01904633641242981,0.2858625054359436,0.9030696690824238,-0.21605239215790956,0.1613771458877277,0.3342811981678656
1681247659610212900,7.658212890625,-0.6899629235267639,-1.24626624584198,2.0421693325042725,0.42837557196617126,0.27779367566108704,-0.8598401546478271,-0.2658389210700989,0.019050806760787964,0.29772162437438965,0.8981680270439847,-0.21500414567237586,0.15444463894962088,0.3510190354459048
1681247659625245700,7.67324560546875,-0.678555428981781,-1.212178349494934,1.9921467304229736,0.42077869176864624,0.27381032705307007,-0.8648544549942017,-0.29262009263038635,0.02716928720474243,0.30220186710357666,0.8930082318813366,-0.2140102608864437,0.14755465697870146,0.36737408004853933
1681247659640277800,7.68827783203125,-0.6220218539237976,-1.1426546573638916,1.9450961351394653,0.41339072585105896,0.2699469327926636,-0.8696187138557434,-0.2951655983924866,0.042522579431533813,0.2939046621322632,0.8876959794824417,-0.2128894826644235,0.14095636404262735,0.38315171965542133
1681247659655309600,7.7033095703125,-0.5899295210838318,-1.0511633157730103,1.9177472591400146,0.4067840874195099,0.26597848534584045,-0.8739463090896606,-0.2910919487476349,0.07830557227134705,0.2547141909599304,0.882202948357986,-0.21168894945476724,0.13496159208119804,0.398360571425566
1681247659670342700,7.7183427734375,-0.5633023381233215,-0.9398434162139893,1.9116710424423218,0.4012111723423004,0.26187628507614136,-0.8777530193328857,-0.2904170751571655,0.09066280722618103,0.258871853351593,0.8764539766232858,-0.21051156641252697,0.1296470505179282,0.4131645150938568
1681247659685374700,7.733374755859375,-0.6301788687705994,-0.7967382073402405,1.8735910654067993,0.3971638083457947,0.25829291343688965,-0.8806506991386414,-0.3081592619419098,0.08266472816467285,0.24654126167297363,0.8703640124203812,-0.20982786893969593,0.12508757855001748,0.4275417583849443
1681247659700407800,7.74840771484375,-0.7129565477371216,-0.6783348917961121,1.800613284111023,0.3945190906524658,0.2562786042690277,-0.8824262022972107,-0.32402345538139343,0.07616466283798218,0.2564648985862732,0.8639695688121726,-0.21011655246752636,0.12098732250349412,0.4413273256143094
1681247659715439900,7.76343994140625,-0.6973194479942322,-0.5346296429634094,1.652770757675171,0.393094003200531,0.25556865334510803,-0.8832677006721497,-0.3456391394138336,0.06532368063926697,0.25219470262527466,0.8575478115540831,-0.2111665344464969,0.11736634212332192,0.45414276999121866
1681247659730472000,7.778471923828125,-0.543753445148468,-0.33092233538627625,1.4484003782272339,0.39331305027008057,0.254853218793869,-0.8833768963813782,-0.3562341630458832,0.07803255319595337,0.22056561708450317,0.8515542523241871,-0.21240925149124826,0.11486459375395949,0.4653426749034731
1681247659745504800,7.7935048828125,-0.051136307418346405,-0.1356782615184784,1.2021756172180176,0.3952668011188507,0.2511656880378723,-0.8835609555244446,-0.3512604236602783,0.1574951708316803,0.09161460399627686,0.8465539922806629,-0.21245378364173367,0.1143805474566093,0.4744753546446933
1681247659760536600,7.80853662109375,0.40346795320510864,0.11498058587312698,0.9372150301933289,0.3990330696105957,0.24225319921970367,-0.8843562602996826,-0.3279575705528259,0.22936546802520752,-0.04032635688781738,0.8430504595004175,-0.21025802081995176,0.11667658476529086,0.48108642436570737
1681247659775568600,7.823568603515625,0.6658484935760498,0.3221854269504547,0.7417752146720886,0.4050528109073639,0.22985509037971497,-0.8849287629127502,-0.2755056619644165,0.3464083671569824,-0.18819135427474976,0.8406670910835355,-0.20685052162137865,0.12144334027333006,0.48553411140765007
1681247659790601700,7.838601806640625,0.6886090636253357,0.3846709132194519,0.47007450461387634,0.411952406167984,0.21680869162082672,-0.885036289691925,-0.2519639730453491,0.3103214502334595,-0.18835848569869995,0.8391394176200713,-0.20320987842070523,0.1272305239925467,0.48822459528282913
1681247659805633800,7.8536337890625,0.4733585715293884,0.39143532514572144,0.02791810967028141,0.4178777039051056,0.2073514461517334,-0.8845245242118835,-0.2324223518371582,0.1375734955072403,-0.11245423555374146,0.8387129917342908,-0.20064641020370386,0.1322072777035993,0.48869494625961424
1681247659820665900,7.868665771484375,0.11506219953298569,0.3788590729236603,-0.4264456629753113,0.4224207103252411,0.20456381142139435,-0.8830143809318542,-0.2343408465385437,0.08694009482860565,-0.11077523231506348,0.8395355152634258,-0.2003428520594803,0.13548263117007392,0.4865053893187015
1681247659835699000,7.883698974609375,-0.23671117424964905,0.32989394664764404,-0.794594407081604,0.4251991808414459,0.2094360738992691,-0.8805351257324219,-0.18687212467193604,0.0973723977804184,-0.22378915548324585,0.8413111130901645,-0.2027126626420253,0.13652838758130081,0.4821442623052658
1681247659850731000,7.89873095703125,-0.3879964053630829,0.28087764978408813,-1.1216709613800049,0.426137238740921,0.21995095908641815,-0.8775127530097961,-0.14523816108703613,0.10855551064014435,-0.29376715421676636,0.8439478972443832,-0.20688976847381935,0.13579486251822379,0.4759289449694656
1681247659865763600,7.913763671875,-0.2853386402130127,0.23148855566978455,-1.4211146831512451,0.42513930797576904,0.23278096318244934,-0.8746825456619263,-0.08012279868125916,0.13243816792964935,-0.39062196016311646,0.8476525286294957,-0.21133862069606743,0.13414433306464602,0.46778895173254165
1681247659880795600,7.928795654296875,0.0184518750756979,0.262500524520874,-1.709307312965393,0.4226421117782593,0.24459421634674072,-0.8726667761802673,-0.06590685248374939,0.14725151658058167,-0.41194015741348267,0.8526280038218702,-0.21463025782714332,0.13266674623237992,0.45755746768903305
1681247659895827700,7.94382763671875,0.3669157922267914,0.35235610604286194,-1.9527256488800049,0.41976821422576904,0.2537597119808197,-0.8714359998703003,-0.08450204133987427,0.2064911425113678,-0.4862605333328247,0.8588646972852292,-0.21628475065370936,0.13229859377570102,0.44504990616021173
1681247659910860800,7.95886083984375,0.6879844665527344,0.4059458374977112,-2.1817190647125244,0.4167516231536865,0.25972360372543335,-0.8711267113685608,-0.07416129112243652,0.22347643971443176,-0.5406011343002319,0.86615576730924,-0.2161137487179475,0.13315969394415011,0.4305083569094357
1681247659925892900,7.973892822265625,0.8505529165267944,0.42559731006622314,-2.3424813747406006,0.4132341742515564,0.2637258768081665,-0.8715997934341431,-0.003657728433609009,0.219748854637146,-0.6374334096908569,0.8742092471764544,-0.21463532387866374,0.1346543438677146,0.41419566194632873
1681247659940925000,7.988925048828125,0.8922079205513,0.3993246853351593,-2.4077744483947754,0.4091671109199524,0.26689475774765015,-0.8725534081459045,0.04144024848937988,0.19666728377342224,-0.6306203603744507,0.8824506160681169,-0.21250892265346197,0.13624700745468257,0.396935316208693
1681247659955958000,8.0039580078125,0.8229799866676331,0.3277210593223572,-2.4962573051452637,0.4040262997150421,0.2704988420009613,-0.8738381862640381,0.11220908164978027,0.1410612165927887,-0.5787222385406494,0.8905957802465122,-0.21031356296029863,0.13729211318343246,0.3791546775831804
1681247659970989800,8.01898974609375,0.8029636740684509,0.18725185096263885,-2.635554313659668,0.3969852924346924,0.27545201778411865,-0.8755163550376892,0.13756063580513,0.11235013604164124,-0.5396447777748108,0.8987224956449362,-0.2083270920614585,0.1372648772917079,0.36063295460133654
1681247659986022700,8.034022705078126,0.7878555655479431,0.044267795979976654,-2.612628221511841,0.38742902874946594,0.2803867757320404,-0.878226637840271,0.15546345710754395,0.09993857145309448,-0.465187668800354,0.9068128510730689,-0.20586879377719916,0.1360320825998054,0.3417655804704006
1681247660001054700,8.0490546875,0.7731093764305115,-0.12619954347610474,-2.646721839904785,0.3757738173007965,0.2851804792881012,-0.881740391254425,0.16061845421791077,0.09679281711578369,-0.4049569368362427,0.914579711354782,-0.20313362611134503,0.1336657337187811,0.32313180237046996
1681247660016086800,8.064086669921876,0.7480764985084534,-0.27340152859687805,-2.7523977756500244,0.36144089698791504,0.29004520177841187,-0.8861344456672668,0.12182024121284485,0.03481444716453552,-0.30756062269210815,0.9223028092690111,-0.2000879312684367,0.12999074300020336,0.30401445567653995
1681247660031120000,8.079119873046874,0.7720381617546082,-0.3771553635597229,-2.79167103767395,0.34488943219184875,0.2947310507297516,-0.8911705017089844,0.10316967964172363,0.0223771333694458,-0.24185556173324585,0.9298905521487135,-0.1967868504219027,0.1252584145520035,0.2844097486277494
1681247660046152000,8.09415185546875,0.9201107025146484,-0.4125186800956726,-2.862790107727051,0.3270007073879242,0.2977235019207001,-0.8969009518623352,0.06383797526359558,0.0053923726081848145,-0.1410476565361023,0.9373016728830392,-0.1926938422517801,0.12007754686869547,0.2644166654529286
1681247660061183700,8.109183837890624,1.1974035501480103,-0.37693697214126587,-2.896831512451172,0.30864495038986206,0.2972376048564911,-0.9035419821739197,0.04284128546714783,0.014743626117706299,-0.11400562524795532,0.944675470591746,-0.187014835308853,0.11512801073856999,0.24363773170890618
1681247660076216600,8.124216552734374,1.504391074180603,-0.2926007807254791,-2.884077548980713,0.291267067193985,0.29190316796302795,-0.9110192656517029,0.015449881553649902,0.045224547386169434,-0.08275514841079712,0.9518742931086018,-0.17928754354525483,0.11111415099193638,0.22236252582722782
1681247660091248600,8.13924853515625,1.8145993947982788,-0.25043201446533203,-2.8741543292999268,0.27517277002334595,0.28132277727127075,-0.9193136096000671,0.01974913477897644,0.048190802335739136,-0.05392247438430786,0.958847774625065,-0.16931271502145073,0.1080574554063507,0.20066853417536715
1681247660106281700,8.15428173828125,2.0339207649230957,-0.2386278212070465,-2.8123855590820312,0.26004061102867126,0.2659231722354889,-0.92825847864151,0.03521698713302612,0.05220732092857361,-0.00914996862411499,0.9654801699170362,-0.15726342237158117,0.10554141615223564,0.17882200491073466
1681247660121313800,8.169313720703125,2.170335292816162,-0.23336993157863617,-2.680453062057495,0.24613487720489502,0.24681928753852844,-0.9372822046279907,0.05357828736305237,0.07311175763607025,0.026881814002990723,0.9715264364962309,-0.14377631452755418,0.10337931885249255,0.15740907965915957
1681247660136345900,8.184345947265625,2.273127794265747,-0.2317264974117279,-2.5308258533477783,0.23354049026966095,0.22470413148403168,-0.9460269212722778,0.06597431004047394,0.07441392540931702,0.07665741443634033,0.9768731161513862,-0.12922290532603625,0.10142973986218044,0.13686629632498795
1681247660151379000,8.19937890625,2.269761562347412,-0.2003621906042099,-2.383800506591797,0.22260648012161255,0.20056763291358948,-0.9540539979934692,0.06772252917289734,0.08158265054225922,0.09100162982940674,0.9814669960842618,-0.11409766812073419,0.0997734228705827,0.11725846528505608
1681247660166410800,8.21441064453125,2.207669258117676,-0.20357581973075867,-2.218597888946533,0.21320274472236633,0.1758127361536026,-0.961059033870697,0.05622170865535736,0.06927396357059479,0.12086433172225952,0.9852840120497206,-0.0990649494015807,0.0982680718125919,0.09871716671086526
1681247660181442800,8.22944287109375,2.044415235519409,-0.24641330540180206,-2.0404598712921143,0.20472010970115662,0.1515987366437912,-0.9670095443725586,0.06833592057228088,0.0734073668718338,0.13900667428970337,0.9883625061110178,-0.08465733677751837,0.09658339713892249,0.08151265387761253
1681247660196475600,8.2444755859375,1.8706344366073608,-0.30643245577812195,-1.8498634099960327,0.1965860277414322,0.12891998887062073,-0.9719740748405457,0.072762131690979,0.06418001651763916,0.19125813245773315,0.9907856087631165,-0.07133437225737435,0.09446891726219905,0.06581077809368002
1681247660211507700,8.2595078125,1.6543772220611572,-0.35783517360687256,-1.6680028438568115,0.18851374089717865,0.10816340893507004,-0.9760959148406982,0.07093146443367004,0.07419439405202866,0.20537447929382324,0.9926649762921149,-0.05925855205217304,0.09187198393743072,0.05161730089440967
1681247660226540800,8.274540771484375,1.457857370376587,-0.40657874941825867,-1.4912461042404175,0.18056251108646393,0.08976756781339645,-0.9794585108757019,0.05245448648929596,0.07951345294713974,0.2549864649772644,0.9940881732731945,-0.048635666892960255,0.08891184593912523,0.038963951578384955
1681247660241572900,8.28957275390625,1.2396347522735596,-0.4769631624221802,-1.3228331804275513,0.17225930094718933,0.07361167669296265,-0.9822973608970642,0.05061060190200806,0.07859475910663605,0.2728399634361267,0.995180435700046,-0.03935862474053401,0.08545308320656704,0.027653696892081393
1681247660256604700,8.304604736328125,1.0327508449554443,-0.5342586636543274,-1.1318423748016357,0.1635463386774063,0.05988935008645058,-0.9847161173820496,0.04241679608821869,0.09152362495660782,0.30885863304138184,0.9960109137518621,-0.031529583922816524,0.0815341648561402,0.017895992837185796
1681247660271637800,8.3196376953125,0.8175702691078186,-0.5998048782348633,-0.9387087225914001,0.1543104201555252,0.048616860061883926,-0.9868255853652954,0.04719717800617218,0.09893564879894257,0.3353058099746704,0.9966536020612669,-0.025142145014212813,0.07716922974224749,0.009713438592545767
1681247660286669800,8.334669921875,0.5624254941940308,-0.6699352860450745,-0.7547266483306885,0.14431315660476685,0.0402851328253746,-0.9887117147445679,0.03493186831474304,0.09109305590391159,0.39172685146331787,0.9971691175309675,-0.02042510542651313,0.07229775542349458,0.0031082256884728283
